state,accelX,accelY,accelZ,gyroX,gyroY,gyroZ,rawMagX,rawMagY,rawMagZ,loopCount,timestamp
0,0.76,-0.03,0.67,-0.18,-0.98,0,-0.26,-0.08,0.5,2786,34429
0,0.73,-0.03,0.65,-1.1,1.22,0.12,-0.26,-0.08,0.49,2787,34439
0,0.77,-0.03,0.67,-0.67,0.06,0.12,-0.26,-0.07,0.49,2788,34449
0,0.74,-0.03,0.66,-0.73,0.18,0.12,-0.26,-0.08,0.5,2789,34459
0,0.76,-0.03,0.67,-1.04,0.3,0.12,-0.26,-0.08,0.5,2790,34469
0,0.76,-0.03,0.66,-0.67,-0.61,-0.06,-0.26,-0.08,0.5,2791,34479
0,0.74,-0.03,0.66,-1.04,0.37,0.37,-0.26,-0.08,0.5,2792,34489
0,0.77,-0.03,0.67,-0.85,0.06,-0.06,-0.26,-0.08,0.5,2793,34499
0,0.74,-0.03,0.66,-0.37,0.12,0,-0.26,-0.08,0.49,2794,34509
0,0.76,-0.03,0.67,-0.98,0.98,0.3,-0.26,-0.07,0.5,2795,34519
0,0.75,-0.03,0.67,-0.49,-0.85,-0.12,-0.26,-0.08,0.5,2796,34529
0,0.74,-0.03,0.65,-1.4,0.3,0.37,-0.26,-0.08,0.5,2797,34539
0,0.77,-0.03,0.67,-0.67,-0.98,0.24,-0.26,-0.08,0.5,2798,34549
0,0.73,-0.03,0.65,-0.61,0.91,0.12,-0.26,-0.08,0.5,2799,34559
0,0.77,-0.03,0.68,-1.04,1.04,0.06,-0.26,-0.07,0.5,2800,34569
0,0.74,-0.03,0.66,-0.3,-0.06,0.06,-0.26,-0.07,0.5,2801,34579
0,0.75,-0.03,0.67,-1.52,0.61,0.37,-0.26,-0.08,0.5,2802,34589
0,0.76,-0.03,0.66,-0.55,-1.22,-0.06,-0.26,-0.08,0.5,2803,34599
0,0.73,-0.03,0.66,-1.1,0.73,0.37,-0.26,-0.08,0.5,2804,34609
0,0.76,-0.03,0.67,-0.67,0.3,0,-0.26,-0.07,0.5,2805,34619
0,0.74,-0.03,0.66,-0.55,0.55,-0.06,-0.26,-0.07,0.49,2806,34629
0,0.76,-0.03,0.67,-0.85,0.79,0.3,-0.26,-0.07,0.5,2807,34639
0,0.76,-0.03,0.67,-0.67,-0.61,0,-0.26,-0.08,0.5,2808,34649
0,0.74,-0.03,0.66,-1.16,-0.18,0.12,-0.26,-0.08,0.5,2809,34659
0,0.77,-0.03,0.67,-0.91,-0.18,0.24,-0.26,-0.08,0.5,2810,34669
0,0.73,-0.03,0.66,-0.43,0.3,-0.06,-0.26,-0.08,0.5,2811,34679
0,0.76,-0.03,0.67,-1.22,1.28,0.12,-0.26,-0.07,0.5,2812,34689
0,0.75,-0.03,0.67,0,-0.37,0,-0.26,-0.07,0.49,2813,34699
0,0.75,-0.03,0.66,-1.59,0.98,0.24,-0.26,-0.08,0.5,2814,34709
0,0.77,-0.03,0.67,-0.37,-1.22,-0.06,-0.26,-0.08,0.5,2815,34719
0,0.75,-0.03,0.66,-0.3,-0.61,-0.06,-0.26,-0.08,0.5,2816,34729
0,0.74,-0.03,0.66,-1.22,1.04,0.24,-0.26,-0.08,0.5,2817,34739
0,0.77,-0.03,0.67,-0.49,-0.06,0.06,-0.26,-0.07,0.5,2818,34749
0,0.74,-0.03,0.66,-0.73,0.61,0.18,-0.26,-0.07,0.5,2819,34759
0,0.76,-0.03,0.67,-1.04,0.24,0.12,-0.26,-0.08,0.49,2820,34769
0,0.75,-0.03,0.67,-0.79,-0.43,0.06,-0.26,-0.08,0.5,2821,34779
0,0.74,-0.03,0.66,-0.98,0.3,0.3,-0.26,-0.08,0.5,2822,34789
0,0.76,-0.03,0.67,-0.67,-0.3,-0.06,-0.26,-0.08,0.5,2823,34799
0,0.73,-0.03,0.65,-0.67,0.91,0.18,-0.26,-0.07,0.49,2824,34809
0,0.77,-0.03,0.68,-0.91,0.67,0.12,-0.26,-0.07,0.49,2825,34819
0,0.74,-0.03,0.66,-0.43,-0.43,-0.06,-0.26,-0.07,0.5,2826,34829
0,0.76,-0.03,0.67,-1.46,0.49,0.3,-0.26,-0.08,0.5,2827,34839
0,0.76,-0.03,0.67,-0.3,-1.16,0.06,-0.26,-0.08,0.5,2828,34849
0,0.74,-0.03,0.66,-1.34,1.22,0.18,-0.26,-0.08,0.5,2829,34859
0,0.77,-0.03,0.67,-0.37,-0.12,-0.12,-0.26,-0.07,0.49,2830,34869
0,0.74,-0.03,0.66,-0.79,0.61,0.18,-0.26,-0.08,0.49,2831,34879
0,0.76,-0.03,0.67,-0.85,0.18,0.12,-0.26,-0.07,0.49,2832,34889
0,0.75,-0.03,0.66,-0.79,-0.61,-0.06,-0.26,-0.08,0.5,2833,34899
0,0.75,-0.03,0.66,-0.98,0.18,0.37,-0.26,-0.08,0.5,2834,34909
0,0.77,-0.03,0.67,-0.79,-0.43,0.06,-0.26,-0.08,0.5,2835,34919
0,0.74,-0.03,0.66,-0.61,0.3,-0.06,-0.26,-0.08,0.5,2836,34929
0,0.76,-0.03,0.67,-0.98,0.91,0.3,-0.26,-0.07,0.49,2837,34939
0,0.75,-0.03,0.67,-0.3,-0.18,-0.12,-0.26,-0.08,0.49,2838,34949
0,0.75,-0.03,0.66,-1.4,0.67,0.18,-0.26,-0.08,0.5,2839,34959
0,0.77,-0.03,0.67,-0.37,-1.22,0.24,-0.26,-0.08,0.5,2840,34969
0,0.73,-0.04,0.65,-1.16,0.49,0.18,-0.26,-0.08,0.5,2841,34979
0,0.78,-0.03,0.67,-0.79,0.06,-0.06,-0.26,-0.08,0.49,2842,34989
0,0.74,-0.03,0.66,-0.43,0.24,0.18,-0.26,-0.07,0.49,2843,34999
0,0.76,-0.03,0.67,-1.16,0.73,0.18,-0.26,-0.08,0.49,2844,35009
0,0.75,-0.03,0.66,-0.3,-0.49,-0.06,-0.26,-0.08,0.5,2845,35019
0,0.75,-0.03,0.66,-1.16,0.49,0.37,-0.26,-0.08,0.5,2846,35029
0,0.76,-0.03,0.67,-0.61,-0.67,0.06,-0.26,-0.08,0.5,2847,35039
0,0.74,-0.03,0.66,-0.91,0.3,0.12,-0.26,-0.08,0.5,2848,35049
0,0.76,-0.03,0.67,-0.61,0.43,0.24,-0.26,-0.07,0.49,2849,35059
0,0.75,-0.03,0.67,-0.61,0.06,0.06,-0.26,-0.07,0.5,2850,35069
0,0.74,-0.03,0.66,-1.1,0.61,0.12,-0.26,-0.08,0.5,2851,35079
0,0.77,-0.03,0.68,-0.85,-0.37,0.18,-0.26,-0.08,0.5,2852,35089
0,0.73,-0.03,0.66,-0.61,0.18,0.12,-0.26,-0.08,0.5,2853,35099
0,0.77,-0.03,0.67,-1.16,0.37,0.12,-0.26,-0.08,0.5,2854,35109
0,0.74,-0.03,0.66,-0.37,0.06,0,-0.26,-0.07,0.5,2855,35119
0,0.75,-0.03,0.67,-1.46,0.85,0.18,-0.26,-0.07,0.5,2856,35129
0,0.76,-0.03,0.67,-0.24,-0.67,-0.06,-0.26,-0.08,0.5,2857,35139
0,0.74,-0.03,0.66,-1.16,0.73,0.24,-0.26,-0.08,0.5,2858,35149
0,0.77,-0.03,0.67,-0.73,-0.67,0,-0.26,-0.08,0.5,2859,35159
0,0.74,-0.03,0.66,-0.91,0.18,-0.06,-0.26,-0.08,0.5,2860,35169
0,0.76,-0.03,0.67,-0.85,0.49,0.3,-0.26,-0.08,0.49,2861,35179
0,0.75,-0.03,0.66,-0.37,0.06,-0.12,-0.26,-0.07,0.49,2862,35189
0,0.74,-0.03,0.66,-1.04,0.91,0.06,-0.26,-0.08,0.5,2863,35199
0,0.77,-0.03,0.67,-0.79,-0.55,0.18,-0.26,-0.08,0.5,2864,35209
0,0.73,-0.03,0.66,-0.67,-0.37,0.12,-0.26,-0.08,0.5,2865,35219
0,0.77,-0.03,0.67,-1.22,0.24,0.12,-0.26,-0.08,0.5,2866,35229
0,0.75,-0.03,0.66,-0.18,-0.37,-0.06,-0.26,-0.07,0.49,2867,35239
0,0.75,-0.03,0.66,-1.4,1.34,0.24,-0.26,-0.08,0.49,2868,35249
0,0.76,-0.03,0.67,-0.06,-0.67,-0.18,-0.26,-0.08,0.5,2869,35259
0,0.75,-0.03,0.66,-0.37,-0.49,0.06,-0.26,-0.08,0.5,2870,35269
0,0.75,-0.03,0.67,-1.52,0.61,0.24,-0.26,-0.08,0.5,2871,35279
0,0.77,-0.03,0.66,-0.43,-0.98,0,-0.26,-0.08,0.5,2872,35289
0,0.73,-0.03,0.65,-0.98,0.85,0.3,-0.26,-0.08,0.5,2873,35299
0,0.77,-0.03,0.67,-0.67,0.73,0.06,-0.26,-0.07,0.5,2874,35309
0,0.75,-0.03,0.67,-0.73,0.24,-0.12,-0.26,-0.08,0.5,2875,35319
0,0.75,-0.03,0.66,-0.98,0.3,0.37,-0.26,-0.08,0.5,2876,35329
0,0.76,-0.03,0.67,-0.73,-0.79,0.06,-0.26,-0.08,0.5,2877,35339
0,0.74,-0.03,0.65,-0.85,0.18,0,-0.26,-0.08,0.5,2878,35349
0,0.77,-0.03,0.67,-0.91,0.43,0.3,-0.26,-0.08,0.5,2879,35359
0,0.73,-0.03,0.66,-0.12,0.12,-0.12,-0.26,-0.07,0.49,2880,35369
0,0.76,-0.03,0.67,-1.4,0.79,0.12,-0.26,-0.08,0.5,2881,35379
0,0.75,-0.03,0.67,-0.3,-0.91,0.12,-0.26,-0.08,0.5,2882,35389
0,0.74,-0.03,0.66,-1.4,0.61,0.24,-0.26,-0.08,0.5,2883,35399
0,0.77,-0.03,0.67,-0.3,-1.1,-0.18,-0.26,-0.08,0.5,2884,35409
0,0.73,-0.03,0.65,-0.85,0.91,0.3,-0.26,-0.08,0.5,2885,35419
0,0.77,-0.03,0.67,-0.79,0.06,0.06,-0.26,-0.07,0.49,2886,35429
0,0.75,-0.03,0.66,-0.85,0.12,-0.12,-0.26,-0.07,0.49,2887,35439
0,0.75,-0.03,0.67,-0.73,0.24,0.37,-0.26,-0.08,0.5,2888,35449
0,0.76,-0.03,0.67,-0.79,-0.3,0.12,-0.26,-0.08,0.5,2889,35459
0,0.74,-0.03,0.66,-0.79,0,0,-0.26,-0.08,0.5,2890,35469
0,0.77,-0.03,0.66,-1.1,0.37,0.43,-0.26,-0.08,0.5,2891,35479
0,0.74,-0.03,0.67,-0.18,-0.18,-0.18,-0.26,-0.07,0.49,2892,35489
0,0.76,-0.03,0.66,-1.28,0.91,0.12,-0.26,-0.08,0.49,2893,35499
0,0.76,-0.03,0.67,-0.24,-0.85,0.12,-0.26,-0.07,0.5,2894,35509
0,0.73,-0.03,0.65,-1.28,0.55,0.24,-0.26,-0.08,0.5,2895,35519
0,0.78,-0.03,0.67,-0.67,-0.43,-0.06,-0.26,-0.08,0.5,2896,35529
0,0.73,-0.03,0.65,-0.55,0.43,0.18,-0.26,-0.08,0.5,2897,35539
0,0.77,-0.03,0.67,-1.1,0.61,0.24,-0.26,-0.08,0.49,2898,35549
0,0.74,-0.03,0.66,-0.43,-0.3,-0.18,-0.26,-0.08,0.49,2899,35559
0,0.75,-0.03,0.67,-1.28,1.1,0.37,-0.26,-0.08,0.5,2900,35569
0,0.76,-0.03,0.67,-0.37,-0.67,0,-0.26,-0.08,0.5,2901,35579
0,0.73,-0.03,0.66,-1.22,0.49,0.12,-0.26,-0.08,0.5,2902,35589
0,0.77,-0.03,0.67,-0.79,-0.18,0.24,-0.26,-0.08,0.5,2903,35599
0,0.74,-0.03,0.66,-0.79,0.18,-0.06,-0.26,-0.08,0.5,2904,35609
0,0.75,-0.03,0.66,-0.79,0.79,0.06,-0.26,-0.08,0.49,2905,35619
0,0.76,-0.03,0.67,-0.61,-0.06,0.12,-0.26,-0.08,0.5,2906,35629
0,0.73,-0.03,0.65,-0.67,0.12,0.12,-0.26,-0.08,0.5,2907,35639
0,0.77,-0.03,0.67,-1.28,-0.12,0.18,-0.26,-0.08,0.5,2908,35649
0,0.73,-0.03,0.65,-0.18,-0.55,0,-0.26,-0.08,0.5,2909,35659
0,0.76,-0.03,0.67,-1.46,0.91,0.43,-0.26,-0.08,0.49,2910,35669
0,0.75,-0.03,0.66,0.06,-0.55,-0.24,-0.26,-0.08,0.49,2911,35679
0,0.74,-0.03,0.66,-1.46,1.46,0.3,-0.26,-0.08,0.5,2912,35689
0,0.77,-0.03,0.67,-0.18,-0.55,0.06,-0.26,-0.08,0.5,2913,35699
0,0.73,-0.03,0.66,-1.28,0.49,0.06,-0.26,-0.08,0.5,2914,35709
0,0.77,-0.03,0.67,-0.98,-0.43,0.24,-0.26,-0.08,0.5,2915,35719
0,0.74,-0.03,0.66,-0.61,-0.12,0.06,-0.26,-0.08,0.5,2916,35729
0,0.75,-0.03,0.66,-0.85,0.55,0.06,-0.26,-0.08,0.49,2917,35739
0,0.77,-0.03,0.67,-0.67,-0.18,0.06,-0.26,-0.08,0.49,2918,35749
0,0.73,-0.03,0.66,-0.61,0.18,0.24,-0.26,-0.08,0.5,2919,35759
0,0.77,-0.03,0.67,-0.98,0.12,0.12,-0.26,-0.08,0.5,2920,35769
0,0.75,-0.03,0.66,-0.49,-0.61,-0.06,-0.26,-0.08,0.5,2921,35779
0,0.75,-0.03,0.66,-1.34,0.55,0.43,-0.26,-0.08,0.5,2922,35789
0,0.76,-0.03,0.67,-0.3,-0.85,-0.12,-0.26,-0.07,0.5,2923,35799
0,0.74,-0.03,0.65,-1.04,1.1,0.24,-0.26,-0.07,0.49,2924,35809
0,0.75,-0.03,0.66,-1.4,1.4,0.3,-0.26,-0.08,0.5,2925,35819
0,0.76,-0.03,0.67,-0.18,-0.98,-0.24,-0.26,-0.08,0.5,2926,35829
0,0.73,-0.03,0.66,-1.52,0.61,0.43,-0.26,-0.08,0.5,2927,35839
0,0.77,-0.03,0.67,-0.43,-0.61,0.12,-0.26,-0.08,0.5,2928,35849
0,0.73,-0.03,0.65,-0.98,0.49,-0.12,-0.26,-0.08,0.49,2929,35859
0,0.77,-0.03,0.67,-0.73,0.61,0.24,-0.26,-0.07,0.49,2930,35869
0,0.75,-0.03,0.66,-0.61,-0.3,0,-0.26,-0.08,0.5,2931,35879
0,0.74,-0.03,0.66,-1.04,0.24,0.18,-0.26,-0.08,0.5,2932,35889
0,0.77,-0.03,0.67,-0.85,-0.61,0.18,-0.26,-0.08,0.5,2933,35899
0,0.73,-0.03,0.65,-0.43,-0.06,0.06,-0.26,-0.07,0.5,2934,35909
0,0.77,-0.03,0.67,-1.1,0.73,0.18,-0.26,-0.08,0.49,2935,35919
0,0.75,-0.03,0.66,-0.18,-0.61,0,-0.26,-0.08,0.49,2936,35929
0,0.75,-0.03,0.66,-1.34,0.79,0.37,-0.26,-0.08,0.5,2937,35939
0,0.77,-0.03,0.67,-0.43,-1.1,-0.12,-0.26,-0.08,0.5,2938,35949
0,0.73,-0.03,0.65,-0.98,0.79,0.24,-0.26,-0.08,0.5,2939,35959
0,0.78,-0.03,0.68,-0.85,0.12,0.24,-0.26,-0.08,0.5,2940,35969
0,0.73,-0.03,0.65,-0.49,0.24,-0.12,-0.26,-0.08,0.5,2941,35979
0,0.76,-0.03,0.67,-1.22,0.61,0.37,-0.26,-0.07,0.49,2942,35989
0,0.76,-0.03,0.66,-0.3,-0.73,0,-0.26,-0.08,0.5,2943,35999
0,0.74,-0.03,0.66,-1.16,0.79,0.24,-0.26,-0.07,0.5,2944,36009
0,0.77,-0.03,0.67,-0.67,-0.12,0.18,-0.26,-0.08,0.5,2945,36019
0,0.73,-0.03,0.66,-0.61,0.18,0.06,-0.26,-0.08,0.5,2946,36029
0,0.76,-0.03,0.67,-1.1,0.67,0.18,-0.26,-0.07,0.49,2947,36039
0,0.75,-0.03,0.67,-0.55,-0.55,-0.06,-0.26,-0.07,0.49,2948,36049
0,0.74,-0.03,0.65,-1.16,0.49,0.37,-0.26,-0.08,0.5,2949,36059
0,0.77,-0.03,0.67,-0.67,-0.24,0,-0.26,-0.07,0.5,2950,36069
0,0.73,-0.03,0.65,-0.61,0.67,0.06,-0.26,-0.08,0.5,2951,36079
0,0.77,-0.03,0.67,-1.04,0.55,0.24,-0.26,-0.08,0.5,2952,36089
0,0.74,-0.03,0.66,-0.37,-0.61,-0.12,-0.26,-0.07,0.5,2953,36099
0,0.76,-0.03,0.66,-1.46,0.85,0.3,-0.26,-0.07,0.5,2954,36109
0,0.76,-0.03,0.67,-0.06,-0.73,-0.06,-0.26,-0.08,0.5,2955,36119
0,0.73,-0.03,0.66,-1.28,1.16,0.18,-0.26,-0.08,0.5,2956,36129
0,0.77,-0.03,0.67,-0.61,-0.37,0.06,-0.26,-0.08,0.5,2957,36139
0,0.73,-0.03,0.65,-0.85,0.24,0.12,-0.26,-0.08,0.5,2958,36149
0,0.76,-0.03,0.67,-0.98,0.43,0.12,-0.26,-0.07,0.49,2959,36159
0,0.76,-0.03,0.66,-0.73,-0.49,-0.06,-0.26,-0.08,0.5,2960,36169
0,0.74,-0.03,0.66,-0.91,0.37,0.37,-0.26,-0.08,0.49,2961,36179
0,0.77,-0.03,0.67,-0.91,0,-0.06,-0.26,-0.08,0.5,2962,36189
0,0.73,-0.03,0.66,-0.43,0.24,-0.12,-0.26,-0.08,0.5,2963,36199
0,0.77,-0.03,0.67,-1.1,0.55,0.43,-0.26,-0.08,0.5,2964,36209
0,0.74,-0.03,0.66,-0.18,-0.91,-0.24,-0.26,-0.08,0.5,2965,36219
0,0.75,-0.03,0.66,-1.52,0.67,0.37,-0.26,-0.07,0.49,2966,36229
0,0.77,-0.03,0.67,-0.18,-0.91,0,-0.26,-0.07,0.49,2967,36239
0,0.73,-0.03,0.65,-0.91,1.1,0.12,-0.26,-0.08,0.5,2968,36249
0,0.78,-0.03,0.68,-0.73,-0.18,0.06,-0.26,-0.08,0.5,2969,36259
0,0.73,-0.03,0.65,-0.55,-0.37,0.12,-0.26,-0.08,0.5,2970,36269
0,0.77,-0.03,0.67,-1.4,0.49,0.3,-0.26,-0.08,0.5,2971,36279
0,0.76,-0.03,0.66,-0.37,-0.49,-0.18,-0.26,-0.07,0.49,2972,36289
0,0.74,-0.03,0.66,-1.04,1.04,0.43,-0.26,-0.08,0.49,2973,36299
0,0.77,-0.03,0.67,-0.61,-0.06,0.06,-0.26,-0.08,0.5,2974,36309
0,0.73,-0.03,0.66,-0.79,0,0,-0.26,-0.08,0.5,2975,36319
0,0.77,-0.03,0.67,-1.22,0.37,0.37,-0.26,-0.08,0.5,2976,36329
0,0.75,-0.03,0.66,-0.37,-0.55,-0.12,-0.26,-0.07,0.5,2977,36339
0,0.75,-0.03,0.65,-1.22,1.1,0.24,-0.26,-0.07,0.5,2978,36349
0,0.74,-0.03,0.65,0.85,0.98,0.73,-0.26,-0.07,0.49,2979,36359
0,0.74,-0.05,0.65,1.34,-3.05,-1.28,-0.26,-0.08,0.49,2980,36369
0,0.75,-0.04,0.65,-2.38,-0.3,0.79,-0.26,-0.08,0.5,2981,36379
0,0.78,-0.03,0.62,-0.55,-0.61,-1.46,-0.26,-0.08,0.5,2982,36389
0,0.84,-0.02,0.68,5.73,13.41,2.74,-0.26,-0.08,0.5,2983,36399
0,0.72,-0.06,0.71,-1.46,-7.2,1.95,-0.26,-0.08,0.49,2984,36409
0,0.73,-0,0.66,-0.91,-6.52,2.26,-0.26,-0.07,0.49,2985,36419
0,0.77,-0.06,0.66,-3.72,-3.11,-0.06,-0.26,-0.08,0.5,2986,36429
0,0.74,-0.03,0.59,0.18,3.96,-2.32,-0.26,-0.08,0.5,2987,36439
0,0.79,-0.02,0.67,1.52,9.33,-0.67,-0.26,-0.08,0.5,2988,36449
0,0.76,-0.02,0.72,1.4,3.05,1.46,-0.26,-0.08,0.5,2989,36459
0,0.74,-0.06,0.7,-1.59,-5.55,0,-0.26,-0.07,0.49,2990,36469
0,0.78,-0.02,0.66,-5.3,-6.65,-0.12,-0.26,-0.08,0.49,2991,36479
0,0.75,-0.01,0.63,-0.61,-3.6,1.34,-0.26,-0.08,0.5,2992,36489
0,0.72,-0.05,0.62,0.91,6.16,-0.12,-0.26,-0.08,0.5,2993,36499
0,0.79,-0.03,0.69,0.91,7.01,-1.46,-0.26,-0.08,0.5,2994,36509
0,0.73,-0.02,0.7,-0.3,0.98,0.67,-0.26,-0.08,0.5,2995,36519
0,0.76,-0.04,0.7,-2.5,-6.65,0.24,-0.26,-0.08,0.49,2996,36529
0,1.1,0.3,0.38,37.87,-49.94,20.67,-0.27,-0.08,0.49,2997,36539
0,0.63,0.15,0.65,41.04,-53.84,49.94,-0.27,-0.09,0.5,2998,36549
0,0.6,0.05,0.59,46.22,-23.23,39.45,-0.27,-0.09,0.5,2999,36559
0,0.78,-0.03,0.74,45.12,-6.04,31.16,-0.28,-0.09,0.5,3000,36569
0,0.71,-0.04,0.76,36.65,-20.61,30.91,-0.28,-0.1,0.49,3001,36579
0,0.63,-0.07,0.69,26.1,-14.21,23.6,-0.28,-0.1,0.49,3002,36589
0,0.77,-0.09,0.72,19.33,-6.95,11.52,-0.28,-0.1,0.49,3003,36599
0,0.64,-0.04,0.68,10.79,-4.21,6.22,-0.28,-0.1,0.49,3004,36609
0,0.86,-0.08,0.83,-7.99,-10.43,6.46,-0.28,-0.1,0.5,3005,36619
0,0.8,-0.13,0.73,-20.67,-47.2,17.26,-0.29,-0.1,0.5,3006,36629
0,0.76,-0.09,0.49,-19.88,-46.52,7.2,-0.29,-0.1,0.5,3007,36639
0,0.85,-0.05,0.32,-10.43,-8.54,3.72,-0.29,-0.1,0.49,3008,36649
0,0.77,-0.02,0.36,11.46,27.87,2.87,-0.28,-0.1,0.49,3009,36659
0,0.77,-0.02,0.54,26.83,45.55,0.55,-0.28,-0.1,0.49,3010,36669
0,0.7,-0.03,0.71,27.26,56.89,-5.85,-0.27,-0.1,0.49,3011,36679
0,0.62,-0.02,0.8,24.51,50.91,-17.01,-0.27,-0.11,0.5,3012,36689
0,0.08,0.13,0.47,37.13,121.83,-25.79,-0.25,-0.1,0.5,3013,36699
0,1.35,-0.17,1.83,-56.89,132.99,-115.49,-0.24,-0.1,0.5,3014,36709
0,-0.93,0.08,0.77,-93.54,110.18,-38.78,-0.23,-0.08,0.5,3015,36719
0,-0.2,-0.14,1.1,-111.22,70.3,-128.29,-0.22,-0.07,0.5,3016,36729
0,0.3,0.03,0.79,-128.35,88.6,-178.05,-0.22,-0.06,0.5,3017,36739
0,1.79,0.32,0.54,-117.2,72.07,-160.67,-0.21,-0.05,0.5,3018,36749
0,2.63,0.28,0.1,-73.78,56.34,-110.24,-0.19,-0.04,0.5,3019,36759
0,0.86,0.21,0.6,-50.55,173.6,-88.6,-0.19,-0.04,0.5,3020,36769
0,1.1,0.25,0.34,-0.85,33.23,-82.13,-0.18,-0.04,0.5,3021,36779
0,1.13,0.03,0.39,41.46,82.62,-37.93,-0.17,-0.05,0.5,3022,36789
0,1.06,0.11,0.52,71.1,119.27,-9.27,-0.16,-0.06,0.5,3023,36799
0,0.95,0.17,0.68,71.22,111.77,7.26,-0.15,-0.06,0.5,3024,36809
0,0.87,0.23,0.5,70.79,111.89,17.26,-0.14,-0.07,0.5,3025,36819
0,0.72,0.28,0.48,97.38,124.63,24.09,-0.13,-0.08,0.49,3026,36829
0,0.54,0.34,0.59,130.49,144.33,26.1,-0.12,-0.09,0.49,3027,36839
0,0.32,0.46,0.77,177.62,152.38,17.8,-0.11,-0.11,0.49,3028,36849
0,0.47,0.04,1.68,206.77,25.55,-11.83,-0.12,-0.13,0.49,3029,36859
0,0.68,0.12,1.71,151.83,-28.11,-31.89,-0.11,-0.14,0.48,3030,36869
0,0.88,0.26,1.62,84.57,107.62,-27.44,-0.1,-0.14,0.48,3031,36879
0,0.99,0.27,1.38,25.67,99.88,-12.26,-0.09,-0.13,0.47,3032,36889
0,1.05,0.33,0.84,-25.79,80.61,7.68,-0.09,-0.13,0.47,3033,36899
0,1.01,0.36,0.38,-35.98,55.06,31.65,-0.09,-0.13,0.47,3034,36909
0,0.65,0.31,0.12,59.82,31.4,61.95,-0.08,-0.14,0.46,3035,36919
0,0.19,0.27,0.54,110.49,38.17,56.46,-0.08,-0.15,0.46,3036,36929
0,-0,0.27,1.19,154.94,29.82,24.51,-0.08,-0.16,0.46,3037,36939
0,0,0.32,1.72,81.59,96.59,-6.89,-0.07,-0.16,0.45,3038,36949
0,0.16,0.42,1.85,19.51,98.35,-35.67,-0.07,-0.16,0.44,3039,36959
0,0.33,0.39,1.45,-24.33,85.49,-54.45,-0.06,-0.15,0.44,3040,36969
0,0.41,0.41,0.95,-44.39,84.88,-64.51,-0.05,-0.14,0.44,3041,36979
0,0.36,0.27,0.63,-37.74,79.63,-75.43,-0.05,-0.14,0.43,3042,36989
0,0.49,0.18,0.27,-11.77,67.26,-83.11,-0.04,-0.13,0.43,3043,36999
0,0.54,0.28,0.46,22.62,125,-79.7,-0.03,-0.13,0.42,3044,37009
0,0.41,0.45,0.73,47.87,98.6,-76.22,-0.02,-0.13,0.41,3045,37019
0,0.16,0.44,0.97,68.23,111.1,-77.87,-0.02,-0.13,0.41,3046,37029
0,-0.1,0.41,1.43,44.94,133.35,-93.84,-0.01,-0.13,0.41,3047,37039
0,-0.12,0.3,1.56,8.9,150.55,-124.57,0.01,-0.12,0.4,3048,37049
0,0.03,0.39,1.29,-18.66,169.39,-147.13,0.02,-0.11,0.39,3049,37059
0,0.21,0.4,1.03,-24.88,158.17,-156.59,0.03,-0.1,0.38,3050,37069
0,0.25,0.35,0.91,-20.24,145.18,-161.83,0.04,-0.08,0.37,3051,37079
0,0.26,0.23,0.85,-9.02,149.94,-162.68,0.04,-0.07,0.36,3052,37089
0,0.25,0.28,0.92,-1.22,157.68,-162.74,0.05,-0.06,0.36,3053,37099
0,0.17,0.28,1.12,0.18,156.83,-160.98,0.06,-0.06,0.35,3054,37109
0,0.02,0.27,1.2,-6.77,173.9,-164.88,0.07,-0.05,0.34,3055,37119
0,0.03,0.22,1.15,-12.5,171.16,-173.72,0.08,-0.04,0.33,3056,37129
0,0.16,0.2,1.09,-11.59,163.6,-176.46,0.08,-0.02,0.32,3057,37139
0,0.21,0.21,1.16,-10.24,146.59,-169.82,0.08,-0.01,0.31,3058,37149
0,0.17,0.2,1.34,-19.45,131.89,-159.21,0.09,-0,0.31,3059,37159
0,0.18,0.28,1.3,-42.01,116.22,-147.44,0.09,0.01,0.3,3060,37169
0,0.21,0.31,1.01,-53.78,96.34,-128.05,0.09,0.02,0.3,3061,37179
0,0.11,0.28,0.91,-51.1,80.91,-108.72,0.09,0.02,0.29,3062,37189
0,-0.05,0.31,1.01,-54.27,79.15,-96.77,0.09,0.03,0.29,3063,37199
0,-0.25,0.29,1.02,-63.72,83.41,-95.73,0.08,0.04,0.28,3064,37209
0,-0.29,0.23,0.91,-71.83,75.18,-102.13,0.08,0.05,0.27,3065,37219
0,-0.31,0.11,0.64,-60.67,64.39,-110.49,0.08,0.05,0.27,3066,37229
0,-0.39,0.04,0.65,-30.79,59.94,-124.51,0.08,0.06,0.27,3067,37239
0,-0.4,0,0.84,-12.38,65.61,-142.68,0.08,0.07,0.27,3068,37249
0,-0.24,0.03,0.99,-8.84,70.98,-153.72,0.08,0.07,0.26,3069,37259
0,-0.06,0.08,1.03,-11.71,75.98,-150.98,0.07,0.08,0.26,3070,37269
0,0.06,0.08,1,-15.91,74.09,-134.39,0.07,0.08,0.25,3071,37279
0,0.05,0.12,0.89,-20.49,79.27,-113.17,0.07,0.09,0.25,3072,37289
0,-0.06,0.15,0.75,-18.78,75.79,-90.73,0.07,0.09,0.25,3073,37299
0,-0.19,0.15,0.76,-15.43,62.44,-73.72,0.07,0.09,0.25,3074,37309
0,-0.34,0.17,0.89,-20.73,46.46,-65.55,0.07,0.1,0.25,3075,37319
0,-0.47,0.16,0.95,-31.34,30,-65.67,0.07,0.1,0.24,3076,37329
0,-0.51,0.09,0.95,-40.12,19.15,-72.01,0.07,0.1,0.24,3077,37339
0,-0.38,0.02,0.95,-45.98,15.3,-77.07,0.07,0.11,0.24,3078,37349
0,-0.18,0,0.97,-52.99,20.06,-73.17,0.06,0.11,0.24,3079,37359
0,-0.05,-0.01,0.95,-58.78,14.27,-57.07,0.06,0.11,0.24,3080,37369
0,-0.02,-0.05,0.97,-64.76,7.56,-36.71,0.06,0.11,0.23,3081,37379
0,-0.11,-0.05,0.94,-75.18,0.06,-20.3,0.06,0.12,0.23,3082,37389
0,-0.32,-0.03,0.8,-83.35,-9.33,-14.82,0.06,0.12,0.23,3083,37399
0,-0.49,-0.03,0.69,-81.89,-17.44,-19.57,0.06,0.12,0.23,3084,37409
0,-0.54,0,0.66,-75,-34.88,-30.73,0.06,0.12,0.23,3085,37419
0,-0.45,-0.07,0.55,-53.05,-30.91,-39.94,0.05,0.13,0.23,3086,37429
0,-0.22,-0.07,0.78,-44.94,-30.79,-39.15,0.05,0.13,0.23,3087,37439
0,-0.13,-0.08,0.88,-43.66,-37.2,-27.62,0.05,0.13,0.22,3088,37449
0,-0.24,-0.1,0.92,-46.4,-37.99,-17.87,0.05,0.14,0.22,3089,37459
0,-0.4,-0.08,0.83,-47.38,-40.91,-18.96,0.04,0.14,0.23,3090,37469
0,-0.41,-0.11,0.75,-43.05,-31.4,-25.73,0.04,0.14,0.23,3091,37479
0,-0.33,-0.15,0.74,-36.77,-34.63,-28.96,0.04,0.14,0.23,3092,37489
0,-0.18,-0.12,0.71,-30.98,-30.91,-25.49,0.04,0.14,0.23,3093,37499
0,-0.14,-0.14,0.79,-23.35,-30.98,-15.37,0.03,0.14,0.23,3094,37509
0,-0.22,-0.12,0.86,-21.95,-29.45,-7.74,0.03,0.15,0.23,3095,37519
0,-0.36,-0.1,0.8,-20.85,-30.98,-7.01,0.03,0.15,0.23,3096,37529
0,-0.45,-0.07,0.74,-14.7,-34.09,-12.32,0.03,0.15,0.23,3097,37539
0,-0.49,-0.07,0.78,-10,-43.11,-20.3,0.03,0.15,0.24,3098,37549
0,-0.39,-0.09,0.81,-10.73,-42.2,-26.83,0.02,0.15,0.24,3099,37559
0,-0.24,-0.09,0.85,-10.98,-35.85,-23.41,0.02,0.15,0.23,3100,37569
0,-0.2,-0.08,0.9,-11.04,-34.88,-15.24,0.02,0.15,0.24,3101,37579
0,-0.27,-0.09,0.94,-11.34,-38.11,-9.45,0.02,0.15,0.24,3102,37589
0,-0.35,-0.1,0.91,-9.09,-30.61,-9.7,0.01,0.15,0.24,3103,37599
0,-0.38,-0.1,0.89,-2.5,-21.65,-13.96,0.01,0.15,0.24,3104,37609
0,-0.32,-0.12,0.9,3.11,-14.63,-17.62,0.01,0.15,0.24,3105,37619
0,-0.23,-0.11,0.91,6.59,-13.84,-16.77,0.01,0.15,0.24,3106,37629
0,-0.26,-0.09,0.96,7.38,-16.34,-12.07,0.01,0.15,0.24,3107,37639
0,-0.3,-0.11,0.96,4.33,-14.51,-11.65,0.01,0.15,0.24,3108,37649
0,-0.27,-0.13,0.96,2.13,-14.88,-12.68,0.01,0.15,0.25,3109,37659
0,-0.23,-0.13,1,-1.89,-19.33,-11.52,0.01,0.15,0.25,3110,37669
0,-0.19,-0.14,1.02,-7.01,-20.73,-8.48,0.01,0.15,0.25,3111,37679
0,-0.19,-0.12,1,-10.3,-23.29,-4.88,0,0.15,0.25,3112,37689
0,-0.25,-0.13,0.98,-10.18,-23.54,-3.35,0,0.16,0.24,3113,37699
0,-0.3,-0.12,1.03,-10.06,-25.67,-6.46,-0,0.15,0.25,3114,37709
0,-0.27,-0.12,1.05,-13.41,-23.66,-11.52,-0,0.15,0.25,3115,37719
0,-0.24,-0.13,1,-16.46,-25.06,-14.57,-0,0.15,0.25,3116,37729
0,-0.21,-0.14,0.92,-16.04,-25.3,-15.85,-0.01,0.16,0.25,3117,37739
0,-0.18,-0.16,0.89,-12.93,-27.56,-15.91,-0.01,0.16,0.25,3118,37749
0,-0.17,-0.16,0.89,-9.02,-35.24,-14.57,-0.01,0.16,0.25,3119,37759
0,-0.18,-0.16,0.94,-6.34,-44.27,-14.02,-0.02,0.16,0.25,3120,37769
0,-0.12,-0.17,0.95,-6.4,-43.96,-13.41,-0.02,0.16,0.25,3121,37779
0,-0.08,-0.15,0.99,-7.13,-44.94,-8.29,-0.02,0.16,0.26,3122,37789
0,-0.15,-0.16,0.99,-8.54,-46.1,-4.57,-0.02,0.16,0.26,3123,37799
0,-0.21,-0.18,0.97,-8.66,-41.65,-6.46,-0.02,0.16,0.26,3124,37809
0,-0.21,-0.15,0.97,-7.07,-40.43,-11.22,-0.03,0.16,0.26,3125,37819
0,-0.17,-0.16,0.94,-4.7,-38.41,-14.39,-0.03,0.16,0.25,3126,37829
0,-0.12,-0.14,0.91,-0.79,-36.46,-13.72,-0.03,0.16,0.26,3127,37839
0,-0.11,-0.17,0.93,2.99,-31.77,-11.89,-0.03,0.16,0.26,3128,37849
0,-0.09,-0.18,0.94,3.17,-27.56,-10.12,-0.04,0.16,0.26,3129,37859
0,-0.08,-0.18,0.94,4.21,-29.02,-7.38,-0.04,0.16,0.26,3130,37869
0,-0.07,-0.17,0.94,5.85,-28.96,-4.63,-0.04,0.16,0.26,3131,37879
0,-0.07,-0.19,0.98,8.9,-26.71,-1.77,-0.04,0.16,0.26,3132,37889
0,-0.07,-0.17,1.07,8.66,-20.85,1.28,-0.04,0.16,0.27,3133,37899
0,-0.06,-0.17,1.1,5.06,-14.09,4.57,-0.04,0.16,0.27,3134,37909
0,-0.04,-0.15,1.07,1.04,-9.7,6.95,-0.04,0.16,0.27,3135,37919
0,-0.08,-0.12,0.98,0.3,-12.32,8.35,-0.04,0.16,0.27,3136,37929
0,-0.17,-0.12,0.93,5.3,-13.84,7.2,-0.05,0.16,0.27,3137,37939
0,-0.18,-0.12,0.97,8.48,-12.44,1.16,-0.04,0.16,0.27,3138,37949
0,-0.09,-0.12,0.96,9.94,-10.43,-1.83,-0.04,0.15,0.27,3139,37959
0,-0.04,-0.14,0.95,12.8,-11.83,0.37,-0.05,0.15,0.27,3140,37969
0,-0.03,-0.13,0.97,14.76,-12.07,3.72,-0.05,0.16,0.27,3141,37979
0,-0.07,-0.14,1.02,15.98,-14.21,5.67,-0.05,0.15,0.27,3142,37989
0,-0.08,-0.14,1.09,12.93,-12.38,5.3,-0.05,0.16,0.27,3143,37999
0,-0.09,-0.11,1.06,5.37,-10,6.04,-0.05,0.16,0.27,3144,38009
0,-0.11,-0.11,0.99,3.17,-7.56,4.57,-0.05,0.16,0.27,3145,38019
0,-0.08,-0.1,0.95,4.39,-8.48,3.78,-0.05,0.15,0.28,3146,38029
0,-0.07,-0.1,0.92,7.01,-14.39,3.48,-0.05,0.15,0.28,3147,38039
0,-0.06,-0.1,0.92,11.34,-18.9,3.05,-0.05,0.15,0.28,3148,38049
0,-0.04,-0.1,1,13.23,-23.35,4.15,-0.05,0.15,0.28,3149,38059
0,-0.06,-0.1,1.07,9.76,-23.48,4.45,-0.05,0.15,0.28,3150,38069
0,-0.06,-0.1,1.07,4.09,-23.11,3.54,-0.05,0.15,0.28,3151,38079
0,-0.05,-0.1,1.03,1.46,-21.16,3.66,-0.05,0.15,0.28,3152,38089
0,-0.02,-0.11,1,0.06,-21.28,4.7,-0.05,0.15,0.28,3153,38099
0,0,-0.11,0.98,0.37,-24.02,6.95,-0.06,0.15,0.28,3154,38109
0,-0.01,-0.09,0.97,-0.12,-30.06,8.9,-0.06,0.15,0.28,3155,38119
0,-0.06,-0.1,0.94,0.61,-36.71,8.72,-0.06,0.15,0.28,3156,38129
0,-0.06,-0.09,0.95,2.13,-41.4,6.4,-0.06,0.15,0.28,3157,38139
0,-0.04,-0.08,0.97,0.73,-43.9,4.33,-0.06,0.14,0.29,3158,38149
0,0.02,-0.08,0.88,0.67,-51.71,4.33,-0.06,0.14,0.29,3159,38159
0,0,-0.08,0.91,7.26,-60.37,7.01,-0.07,0.15,0.29,3160,38169
0,-0.02,-0.11,1.04,8.66,-61.04,7.07,-0.07,0.15,0.29,3161,38179
0,0,-0.1,1.14,4.15,-56.46,6.16,-0.07,0.15,0.29,3162,38189
0,0.02,-0.09,1.15,-3.41,-51.04,6.04,-0.08,0.15,0.29,3163,38199
0,0.01,-0.09,1.09,-8.6,-41.77,5.91,-0.08,0.15,0.29,3164,38209
0,-0.03,-0.09,1.01,-8.84,-34.94,5.18,-0.08,0.15,0.29,3165,38219
0,-0.04,-0.09,0.97,-5.06,-27.26,1.71,-0.08,0.15,0.29,3166,38229
0,0,-0.11,0.96,-2.5,-20.37,-1.89,-0.08,0.15,0.3,3167,38239
0,0.07,-0.12,0.95,-1.34,-16.52,-2.07,-0.08,0.15,0.29,3168,38249
0,0.09,-0.11,0.95,0.43,-18.9,-0.12,-0.09,0.15,0.29,3169,38259
0,0.11,-0.13,0.99,0.06,-21.83,1.83,-0.09,0.15,0.3,3170,38269
0,0.09,-0.1,1.02,-2.13,-30.49,3.41,-0.09,0.15,0.3,3171,38279
0,0.06,-0.11,1.04,-5.18,-35.12,3.96,-0.09,0.15,0.3,3172,38289
0,0.08,-0.11,1.08,-9.21,-36.77,4.7,-0.09,0.15,0.3,3173,38299
0,0.07,-0.11,1.07,-13.23,-36.22,4.76,-0.09,0.15,0.29,3174,38309
0,0.1,-0.11,0.99,-12.87,-30.91,4.27,-0.09,0.15,0.29,3175,38319
0,0.1,-0.11,0.96,-7.07,-23.23,5.61,-0.09,0.15,0.3,3176,38329
0,0.05,-0.11,0.96,-1.28,-15.73,4.45,-0.09,0.15,0.3,3177,38339
0,0.04,-0.1,0.96,3.96,-7.26,1.04,-0.1,0.15,0.3,3178,38349
0,0.05,-0.1,0.98,7.2,-3.54,-1.77,-0.1,0.15,0.3,3179,38359
0,0.05,-0.09,1.01,8.48,-4.09,-4.02,-0.1,0.15,0.3,3180,38369
0,0.08,-0.1,1.05,6.22,-2.44,-5.98,-0.1,0.15,0.3,3181,38379
0,0.13,-0.1,1.06,2.8,-0.91,-5,-0.1,0.15,0.3,3182,38389
0,0.14,-0.11,1.04,0.79,0.12,-2.74,-0.1,0.15,0.3,3183,38399
0,0.14,-0.11,1.03,0.37,-0.49,-0.55,-0.1,0.15,0.3,3184,38409
0,0.16,-0.11,1.05,-0.43,3.11,1.22,-0.1,0.15,0.3,3185,38419
0,0.15,-0.09,1.05,-1.77,4.82,3.84,-0.1,0.15,0.3,3186,38429
0,0.08,-0.09,1.03,-2.38,5.79,4.76,-0.1,0.15,0.29,3187,38439
0,0.04,-0.1,1,-2.38,8.48,1.59,-0.1,0.15,0.3,3188,38449
0,0.07,-0.1,0.97,-0.98,9.09,-1.1,-0.09,0.15,0.3,3189,38459
0,0.12,-0.1,0.98,0.85,9.21,-1.52,-0.09,0.15,0.3,3190,38469
0,0.13,-0.1,1.01,0.49,7.07,0.61,-0.09,0.15,0.3,3191,38479
0,0.09,-0.1,1.02,-1.77,5.79,1.46,-0.09,0.15,0.3,3192,38489
0,0.05,-0.08,1.01,-2.38,3.72,0.06,-0.09,0.15,0.3,3193,38499
0,0.01,-0.07,1.02,-3.23,2.74,-2.93,-0.09,0.15,0.3,3194,38509
0,-0,-0.08,0.99,-3.48,3.29,-7.2,-0.09,0.15,0.3,3195,38519
0,-0,-0.08,0.96,-0.85,0.06,-10.79,-0.09,0.15,0.3,3196,38529
0,0.01,-0.09,0.96,2.68,-0.37,-14.27,-0.09,0.15,0.3,3197,38539
0,0.04,-0.09,0.99,4.94,0.85,-16.77,-0.1,0.15,0.3,3198,38549
0,0.09,-0.1,1.01,4.02,0.06,-16.65,-0.1,0.15,0.3,3199,38559
0,0.08,-0.11,1,4.02,-0.55,-15.73,-0.1,0.15,0.3,3200,38569
0,0.07,-0.13,1,4.33,0.12,-16.04,-0.1,0.15,0.3,3201,38579
0,0.11,-0.11,1.02,2.56,-0.67,-15.3,-0.1,0.15,0.3,3202,38589
0,0.11,-0.12,1.02,0.85,-1.95,-12.13,-0.1,0.15,0.3,3203,38599
0,0.08,-0.11,1.02,-0.98,-2.13,-10.24,-0.1,0.15,0.3,3204,38609
0,0.04,-0.09,1.01,-1.04,-3.17,-11.4,-0.1,0.15,0.3,3205,38619
0,0.01,-0.1,1,-0.98,-3.72,-15.49,-0.1,0.15,0.3,3206,38629
0,0.05,-0.11,0.97,-0.91,-2.68,-18.96,-0.1,0.15,0.3,3207,38639
0,0.1,-0.11,0.94,1.77,-4.21,-18.72,-0.1,0.15,0.3,3208,38649
0,0.11,-0.1,0.99,4.02,-4.82,-16.65,-0.11,0.15,0.3,3209,38659
0,0.09,-0.11,1.04,3.17,-4.45,-16.22,-0.11,0.15,0.3,3210,38669
0,0.09,-0.1,1.06,-0.12,-4.57,-17.38,-0.11,0.15,0.3,3211,38679
0,0.11,-0.11,1.04,-2.56,-4.82,-17.01,-0.11,0.15,0.3,3212,38689
0,0.14,-0.11,1.03,-3.84,-5.06,-15,-0.11,0.15,0.3,3213,38699
0,0.14,-0.1,1,-5,-4.45,-12.32,-0.11,0.15,0.3,3214,38709
0,0.1,-0.1,0.98,-3.48,-6.1,-11.34,-0.11,0.15,0.3,3215,38719
0,0.06,-0.1,1.01,-2.93,-5.06,-12.44,-0.11,0.15,0.3,3216,38729
0,0.11,-0.09,0.99,-5.24,-2.87,-13.6,-0.11,0.15,0.3,3217,38739
0,0.15,-0.09,0.92,-4.21,-6.22,-11.16,-0.11,0.16,0.3,3218,38749
0,0.12,-0.1,0.94,-0.24,-7.62,-8.54,-0.11,0.15,0.3,3219,38759
0,0.11,-0.1,1,0.49,-5.12,-7.8,-0.11,0.15,0.3,3220,38769
0,0.13,-0.09,0.98,-0.98,-4.33,-6.22,-0.11,0.15,0.3,3221,38779
0,0.08,-0.09,0.98,-0.18,-5.55,-4.51,-0.11,0.15,0.3,3222,38789
0,0.04,-0.08,1,-1.28,-8.05,-6.16,-0.12,0.15,0.3,3223,38799
0,0.05,-0.08,1,-2.32,-7.56,-9.02,-0.12,0.16,0.3,3224,38809
0,0.04,-0.06,0.98,-2.44,-9.27,-11.34,-0.12,0.15,0.3,3225,38819
0,-0,-0.08,0.99,-1.04,-7.74,-16.16,-0.12,0.15,0.3,3226,38829
0,0.06,-0.08,1.01,-1.59,-6.34,-20.3,-0.12,0.15,0.3,3227,38839
0,0.14,-0.07,1.02,-2.56,-5.91,-19.63,-0.12,0.15,0.3,3228,38849
0,0.12,-0.08,1.02,-3.35,-6.83,-17.44,-0.12,0.16,0.3,3229,38859
0,0.07,-0.11,1.02,-4.51,-5.98,-18.78,-0.13,0.15,0.3,3230,38869
0,0.1,-0.1,1.04,-6.65,-4.94,-20.49,-0.13,0.16,0.3,3231,38879
0,0.1,-0.1,1.04,-8.41,-5.12,-21.4,-0.13,0.15,0.3,3232,38889
0,0.01,-0.08,1.07,-10.61,-8.35,-25.67,-0.13,0.15,0.3,3233,38899
0,-0.1,-0.06,1.11,-13.72,-10.43,-36.04,-0.13,0.16,0.3,3234,38909
0,-0.09,-0.08,1.14,-19.33,-10.37,-49.94,-0.14,0.16,0.3,3235,38919
0,0.04,-0.1,1.14,-26.95,-7.68,-60,-0.14,0.16,0.29,3236,38929
0,0.21,-0.14,0.93,-36.34,-8.48,-62.5,-0.15,0.17,0.3,3237,38939
0,0.32,-0.13,0.6,-31.95,-19.88,-58.05,-0.15,0.17,0.3,3238,38949
0,0.21,-0.14,0.5,-4.7,-31.22,-54.27,-0.15,0.16,0.3,3239,38959
0,0.09,-0.15,0.81,15.24,-34.02,-58.23,-0.16,0.16,0.3,3240,38969
0,0.1,-0.16,1.04,13.23,-27.8,-66.22,-0.16,0.17,0.3,3241,38979
0,0.17,-0.12,1.08,2.13,-30.98,-71.22,-0.17,0.17,0.3,3242,38989
0,0.11,-0.09,1.07,-2.68,-40.98,-73.54,-0.18,0.17,0.3,3243,38999
0,0.09,-0.12,1.11,-8.96,-35.06,-80.43,-0.18,0.17,0.3,3244,39009
0,0.13,-0.08,1.11,-16.71,-33.05,-88.48,-0.19,0.17,0.3,3245,39019
0,0.14,-0.1,1.01,-21.95,-31.77,-97.74,-0.2,0.17,0.3,3246,39029
0,0.25,-0.11,0.86,-19.27,-21.16,-103.41,-0.2,0.17,0.29,3247,39039
0,0.39,-0.1,0.77,-10.3,-16.83,-103.41,-0.21,0.17,0.29,3248,39049
0,0.47,-0.11,0.8,3.05,-16.22,-95.91,-0.21,0.17,0.29,3249,39059
0,0.46,-0.14,0.93,9.76,-16.4,-86.95,-0.22,0.17,0.3,3250,39069
0,0.41,-0.13,1.04,8.6,-16.77,-79.7,-0.22,0.17,0.3,3251,39079
0,0.31,-0.09,1.13,2.26,-17.87,-74.88,-0.23,0.17,0.3,3252,39089
0,0.18,-0.05,1.1,-8.6,-15.98,-77.44,-0.24,0.17,0.3,3253,39099
0,0.15,-0.02,0.84,-10.37,-16.59,-86.83,-0.24,0.17,0.29,3254,39109
0,0.24,-0.03,0.91,-2.13,-10.98,-87.74,-0.24,0.17,0.29,3255,39119
0,0.38,-0.03,0.96,-1.59,-8.72,-83.84,-0.25,0.17,0.3,3256,39129
0,0.38,-0,1.01,-3.6,-6.16,-74.94,-0.25,0.16,0.3,3257,39139
0,0.19,-0.02,1.02,-2.38,-3.05,-72.26,-0.25,0.17,0.3,3258,39149
0,0.11,-0,1.09,-4.33,5.79,-79.21,-0.26,0.16,0.3,3259,39159
0,0.16,-0.02,1.05,-6.4,5.67,-87.01,-0.26,0.16,0.29,3260,39169
0,0.26,-0.02,1.13,-8.72,17.07,-88.48,-0.27,0.17,0.29,3261,39179
0,0.34,-0.01,1.09,-16.52,25,-84.15,-0.27,0.16,0.29,3262,39189
0,0.32,-0.01,0.98,-18.05,33.96,-75.3,-0.27,0.16,0.3,3263,39199
0,0.24,-0.01,0.98,-15.67,44.21,-68.41,-0.27,0.16,0.3,3264,39209
0,0.12,-0.02,1.01,-16.59,49.02,-67.56,-0.27,0.16,0.29,3265,39219
0,0.1,-0.06,0.95,-18.05,53.96,-71.95,-0.27,0.17,0.29,3266,39229
0,0.19,-0.05,0.92,-15.79,57.5,-72.01,-0.27,0.17,0.29,3267,39239
0,0.27,-0.04,0.92,-11.89,61.04,-66.04,-0.27,0.16,0.29,3268,39249
0,0.26,-0.07,0.96,-8.66,55.49,-58.41,-0.27,0.16,0.29,3269,39259
0,0.23,-0.05,1.02,-8.05,47.68,-51.89,-0.27,0.16,0.29,3270,39269
0,0.15,-0.07,1.03,-10.43,42.07,-49.21,-0.27,0.16,0.3,3271,39279
0,0.1,-0.05,1.03,-10.85,35.43,-47.44,-0.27,0.17,0.29,3272,39289
0,0.1,-0.03,1.05,-11.71,32.68,-45.43,-0.27,0.17,0.29,3273,39299
0,0.15,-0.04,1.09,-11.95,32.56,-41.95,-0.27,0.17,0.29,3274,39309
0,0.19,-0.03,1.15,-15.73,35.79,-35.49,-0.27,0.17,0.29,3275,39319
0,0.16,-0.05,1.09,-21.65,37.62,-30.18,-0.27,0.17,0.29,3276,39329
0,0.21,-0.08,1,-21.22,34.27,-23.41,-0.27,0.16,0.29,3277,39339
0,0.25,-0.06,0.97,-20.06,25.79,-12.56,-0.27,0.17,0.29,3278,39349
0,0.06,-0.09,0.9,-16.4,20.12,-6.22,-0.27,0.17,0.29,3279,39359
0,-0.02,-0.08,0.86,-9.88,15.3,-9.7,-0.27,0.17,0.29,3280,39369
0,-0.02,-0.08,0.91,-1.95,10.73,-13.84,-0.27,0.17,0.29,3281,39379
0,0.01,-0.08,0.99,0.18,5.24,-17.38,-0.27,0.17,0.29,3282,39389
0,0.07,-0.08,1.03,-0.61,-3.66,-17.07,-0.27,0.17,0.3,3283,39399
0,0.11,-0.1,1.05,-3.78,-11.04,-14.82,-0.27,0.17,0.29,3284,39409
0,0.15,-0.11,1,-6.83,-14.51,-12.74,-0.27,0.17,0.29,3285,39419
0,0.23,-0.12,0.94,-4.7,-15.61,-9.27,-0.27,0.17,0.29,3286,39429
0,0.31,-0.14,0.96,-3.17,-16.04,-2.62,-0.27,0.17,0.29,3287,39439
0,0.38,-0.14,0.89,-0.98,-14.33,8.05,-0.27,0.17,0.29,3288,39449
0,0.31,-0.13,0.89,7.13,-16.28,18.48,-0.27,0.17,0.29,3289,39459
0,0.19,-0.12,1.07,10,-13.23,20.67,-0.27,0.17,0.29,3290,39469
0,0.22,-0.1,1.14,2.01,-7.99,20.91,-0.27,0.17,0.29,3291,39479
0,0.17,-0.06,1.06,-2.93,-5.37,23.29,-0.27,0.17,0.28,3292,39489
0,-0.02,-0.08,1,-1.04,-3.48,16.65,-0.27,0.17,0.29,3293,39499
0,0.03,-0.08,1.03,0.98,4.09,6.4,-0.27,0.16,0.29,3294,39509
0,0.18,-0.09,1.04,-0.12,14.76,4.02,-0.27,0.17,0.29,3295,39519
0,0.22,-0.1,0.97,-0.24,21.65,8.17,-0.27,0.17,0.29,3296,39529
0,0.2,-0.13,0.93,3.78,27.01,12.07,-0.26,0.17,0.29,3297,39539
0,0.18,-0.1,0.98,5.37,26.71,15.67,-0.26,0.17,0.29,3298,39549
0,0.09,-0.09,1.01,3.48,23.29,17.93,-0.26,0.17,0.29,3299,39559
0,-0.06,-0.05,0.98,1.34,17.99,16.34,-0.26,0.17,0.29,3300,39569
0,-0.17,-0.05,0.97,1.89,20.49,6.77,-0.26,0.17,0.29,3301,39579
0,-0.1,-0.05,0.98,1.95,24.51,-3.29,-0.26,0.17,0.29,3302,39589
0,0,-0.04,0.98,1.95,25,-7.87,-0.26,0.17,0.29,3303,39599
0,0.03,-0.06,0.98,1.83,24.33,-10.06,-0.26,0.17,0.29,3304,39609
0,0.08,-0.09,0.94,1.65,24.88,-12.56,-0.25,0.17,0.29,3305,39619
0,0.13,-0.1,0.86,5.73,25.18,-11.04,-0.25,0.17,0.29,3306,39629
0,0.14,-0.11,0.91,13.48,25.98,-7.07,-0.25,0.16,0.3,3307,39639
0,0.08,-0.05,1.07,11.77,22.68,-4.45,-0.25,0.16,0.3,3308,39649
0,-0.09,-0.03,1.02,6.28,18.05,-10.61,-0.25,0.16,0.29,3309,39659
0,-0.14,-0.04,1.09,4.63,18.66,-19.94,-0.25,0.17,0.29,3310,39669
0,-0.05,-0.05,1.08,-2.2,20.61,-28.41,-0.25,0.16,0.29,3311,39679
0,0.05,-0.04,0.98,-4.51,17.99,-31.04,-0.25,0.16,0.3,3312,39689
0,0.05,-0.07,0.94,-0.91,16.4,-30.79,-0.25,0.16,0.3,3313,39699
0,0.03,-0.06,0.96,1.22,15.73,-31.83,-0.25,0.16,0.3,3314,39709
0,0.04,-0.08,0.98,1.46,17.68,-32.74,-0.26,0.16,0.3,3315,39719
0,0.1,-0.09,0.94,1.95,17.87,-30.61,-0.26,0.16,0.29,3316,39729
0,0.11,-0.07,0.91,3.48,15.91,-25.43,-0.26,0.16,0.3,3317,39739
0,0.05,-0.06,0.91,6.89,10.3,-21.89,-0.26,0.16,0.3,3318,39749
0,0.02,-0.04,0.94,8.78,6.71,-22.26,-0.26,0.16,0.3,3319,39759
0,0.05,-0.02,0.94,10.61,2.99,-23.11,-0.26,0.16,0.3,3320,39769
0,0.08,-0.01,0.96,13.6,0.37,-22.56,-0.26,0.16,0.3,3321,39779
0,0.09,-0,1.04,16.34,-2.56,-20.43,-0.26,0.16,0.3,3322,39789
0,0.15,-0.01,1.12,13.6,-0.18,-17.74,-0.26,0.16,0.3,3323,39799
0,0.14,0.01,1.14,8.9,0.91,-12.32,-0.26,0.15,0.3,3324,39809
0,0.02,0.01,1.15,4.02,6.59,-10.43,-0.26,0.15,0.31,3325,39819
0,-0.09,0.01,1.13,-0.37,11.83,-14.63,-0.26,0.15,0.31,3326,39829
0,-0.05,0,1.12,-4.82,16.34,-20,-0.26,0.15,0.3,3327,39839
0,0.07,-0.01,1.09,-10.3,18.54,-19.45,-0.26,0.16,0.3,3328,39849
0,0.08,-0.05,1.03,-15.37,19.15,-16.65,-0.26,0.16,0.3,3329,39859
0,0.09,-0.06,0.94,-16.77,16.28,-16.22,-0.26,0.15,0.3,3330,39869
0,0.12,-0.08,0.91,-13.96,12.56,-13.96,-0.26,0.15,0.3,3331,39879
0,0.11,-0.09,0.92,-13.17,10.67,-11.34,-0.26,0.15,0.3,3332,39889
0,0.12,-0.08,0.9,-11.65,7.74,-8.05,-0.26,0.15,0.3,3333,39899
0,0.09,-0.07,0.92,-8.66,4.21,-4.09,-0.26,0.16,0.3,3334,39909
0,0.03,-0.05,0.96,-7.26,2.32,-3.17,-0.26,0.16,0.3,3335,39919
0,0.02,-0.05,1.01,-6.71,3.05,-4.09,-0.26,0.16,0.3,3336,39929
0,0.04,-0.05,1.03,-8.6,4.88,-4.39,-0.26,0.16,0.3,3337,39939
0,0.08,-0.05,1.01,-8.96,6.04,-3.05,-0.26,0.16,0.3,3338,39949
0,0.07,-0.06,1.02,-7.68,7.07,-0.73,-0.26,0.16,0.3,3339,39959
0,0.06,-0.06,1.03,-8.6,9.76,1.22,-0.26,0.16,0.3,3340,39969
0,0.04,-0.05,1.01,-8.84,11.28,2.87,-0.26,0.16,0.3,3341,39979
0,-0,-0.06,1.01,-8.84,11.34,2.74,-0.26,0.16,0.3,3342,39989
0,-0.01,-0.08,1,-10.18,9.57,0.43,-0.26,0.16,0.3,3343,39999
0,0.03,-0.08,0.96,-9.88,7.13,-1.04,-0.26,0.16,0.3,3344,40009
0,0.06,-0.11,0.94,-7.38,5.24,-1.28,-0.26,0.16,0.3,3345,40019
0,0.13,-0.12,0.94,-5,4.57,-0.06,-0.26,0.16,0.3,3346,40029
0,0.19,-0.12,0.91,-1.89,3.96,4.57,-0.26,0.16,0.3,3347,40039
0,0.19,-0.12,0.89,2.93,4.88,10.37,-0.26,0.16,0.3,3348,40049
0,0.14,-0.11,0.92,8.48,5.12,14.45,-0.26,0.16,0.3,3349,40059
0,0.1,-0.08,0.96,12.99,6.1,16.89,-0.26,0.16,0.3,3350,40069
0,0.07,-0.06,1.03,15.3,9.33,17.8,-0.25,0.16,0.3,3351,40079
0,0.04,-0.04,1.05,14.82,11.59,18.48,-0.25,0.16,0.3,3352,40089
0,0.02,-0.02,1.05,14.45,12.87,19.02,-0.25,0.16,0.3,3353,40099
0,-0.01,-0.02,1.09,13.6,10,19.21,-0.25,0.16,0.3,3354,40109
0,-0.02,-0.02,1.1,9.88,8.48,17.93,-0.25,0.16,0.31,3355,40119
0,-0.03,-0,1.05,7.5,5.43,17.2,-0.25,0.16,0.3,3356,40129
0,-0.11,-0.01,1.08,7.68,2.32,15.12,-0.25,0.16,0.3,3357,40139
0,-0.13,-0.01,1.13,3.72,0.24,9.82,-0.25,0.16,0.3,3358,40149
0,-0.07,-0.01,1.12,-2.26,-0.43,5.3,-0.25,0.16,0.3,3359,40159
0,-0.02,-0.02,1.08,-6.77,1.4,4.63,-0.25,0.16,0.3,3360,40169
0,-0.02,-0.04,1.04,-9.57,2.99,4.51,-0.25,0.16,0.3,3361,40179
0,-0.02,-0.06,0.96,-9.15,6.16,1.89,-0.25,0.16,0.3,3362,40189
0,0.04,-0.06,0.96,-3.9,7.26,0.61,-0.25,0.16,0.3,3363,40199
0,0.03,-0.07,0.99,-2.62,8.78,1.89,-0.25,0.16,0.3,3364,40209
0,0.01,-0.08,0.99,-2.56,9.63,2.01,-0.25,0.16,0.3,3365,40219
0,0.01,-0.08,0.96,-1.77,7.5,1.59,-0.25,0.16,0.3,3366,40229
0,-0,-0.08,1,0.79,3.48,2.13,-0.24,0.16,0.31,3367,40239
0,0,-0.08,1.04,-1.1,3.11,1.46,-0.24,0.16,0.31,3368,40249
0,0.04,-0.07,1.01,-2.01,2.87,2.32,-0.24,0.16,0.3,3369,40259
0,0.03,-0.07,1.01,-1.1,1.59,4.63,-0.24,0.16,0.3,3370,40269
0,-0.06,-0.07,1.01,-1.46,1.28,4.21,-0.24,0.16,0.3,3371,40279
0,-0.12,-0.07,1.01,-1.95,0.98,-1.04,-0.24,0.16,0.3,3372,40289
0,-0.06,-0.07,1.02,-2.87,1.65,-5.98,-0.24,0.16,0.3,3373,40299
0,0.01,-0.08,1.01,-3.66,1.34,-7.01,-0.24,0.16,0.3,3374,40309
0,0.06,-0.09,0.99,-4.27,0.61,-5.61,-0.25,0.16,0.31,3375,40319
0,0.1,-0.09,0.97,-3.66,0.37,-2.26,-0.24,0.16,0.3,3376,40329
0,0.12,-0.08,0.96,-1.95,0.06,3.23,-0.25,0.16,0.3,3377,40339
0,0.03,-0.08,0.98,-0.79,0.3,5.91,-0.24,0.16,0.3,3378,40349
0,-0.06,-0.08,0.97,0.12,0.49,1.83,-0.24,0.16,0.3,3379,40359
0,-0.02,-0.06,0.97,3.11,2.01,-2.13,-0.24,0.16,0.3,3380,40369
0,0.01,-0.06,1.05,3.6,3.78,-2.87,-0.24,0.16,0.3,3381,40379
0,0.01,-0.06,1.05,0.85,4.02,-3.17,-0.24,0.16,0.31,3382,40389
0,0,-0.07,1.02,-0.24,4.09,-3.29,-0.25,0.16,0.3,3383,40399
0,0.01,-0.06,0.97,0.79,4.21,-3.6,-0.24,0.16,0.3,3384,40409
0,0.01,-0.07,0.97,3.78,2.07,-2.44,-0.25,0.16,0.3,3385,40419
0,0.01,-0.06,1.01,5.12,2.32,-1.28,-0.24,0.16,0.31,3386,40429
0,0,-0.06,1.03,5.06,2.62,0.43,-0.24,0.16,0.31,3387,40439
0,-0,-0.05,1.04,4.63,2.26,1.83,-0.24,0.16,0.3,3388,40449
0,-0.01,-0.06,1.05,3.11,1.52,2.68,-0.24,0.16,0.3,3389,40459
0,-0.01,-0.05,1.02,1.77,1.4,3.78,-0.24,0.16,0.3,3390,40469
0,-0.06,-0.05,1,2.07,1.59,3.84,-0.24,0.16,0.3,3391,40479
0,-0.08,-0.05,1.01,2.26,2.2,1.89,-0.24,0.15,0.31,3392,40489
0,-0.08,-0.05,1.01,2.01,2.5,-0.67,-0.24,0.16,0.31,3393,40499
0,-0.09,-0.05,0.99,2.93,1.52,-2.62,-0.24,0.16,0.3,3394,40509
0,-0.1,-0.04,1,2.56,2.44,-4.88,-0.24,0.16,0.3,3395,40519
0,-0.09,-0.04,0.99,2.38,1.77,-7.62,-0.25,0.16,0.3,3396,40529
0,-0.05,-0.05,1,2.62,0.06,-9.45,-0.24,0.16,0.3,3397,40539
0,0.01,-0.04,1,1.95,-0.55,-8.84,-0.25,0.16,0.3,3398,40549
0,0.01,-0.04,1,0.49,-1.28,-6.71,-0.25,0.16,0.31,3399,40559
0,-0.01,-0.04,0.95,1.16,-0.43,-5.79,-0.25,0.15,0.31,3400,40569
0,-0.04,-0.04,0.95,4.39,0.24,-6.16,-0.25,0.15,0.31,3401,40579
0,-0.02,-0.02,0.99,5.37,1.22,-7.44,-0.25,0.16,0.3,3402,40589
0,-0.02,-0.02,1.01,5.91,1.1,-7.26,-0.25,0.16,0.3,3403,40599
0,-0,-0.02,1.04,4.21,1.46,-7.2,-0.25,0.15,0.31,3404,40609
0,0.02,-0.01,1.03,2.87,0.91,-5.91,-0.25,0.15,0.31,3405,40619
0,0.02,-0.01,1.01,2.5,0.79,-4.02,-0.25,0.16,0.31,3406,40629
0,0.01,-0.01,1,2.5,0.06,-2.74,-0.25,0.16,0.3,3407,40639
0,0.01,-0.01,1.01,2.93,-0.49,-2.32,-0.25,0.16,0.3,3408,40649
0,0.03,-0,1.02,2.56,-2.5,-1.04,-0.25,0.16,0.3,3409,40659
0,0.03,0,1.05,2.01,-3.05,0.24,-0.25,0.15,0.31,3410,40669
0,0.02,0,1.05,-0.18,-1.46,0.61,-0.25,0.15,0.31,3411,40679
0,0.02,0.01,1.03,-1.83,1.16,0.85,-0.25,0.15,0.31,3412,40689
0,-0.01,-0,1.02,-2.13,2.87,0.55,-0.25,0.15,0.31,3413,40699
0,0.01,-0.01,1.01,-3.17,5.18,-0.73,-0.25,0.15,0.31,3414,40709
0,0.05,-0.02,0.99,-3.9,6.4,0.37,-0.25,0.15,0.3,3415,40719
0,0.05,-0.03,0.95,-4.27,6.22,2.56,-0.25,0.15,0.31,3416,40729
0,0.04,-0.03,0.9,-1.71,6.65,5.12,-0.25,0.15,0.31,3417,40739
0,-0.03,-0.05,0.94,3.41,6.89,6.22,-0.25,0.15,0.31,3418,40749
0,-0.02,-0.04,0.94,4.21,6.04,5.73,-0.25,0.15,0.31,3419,40759
0,-0.04,-0.05,0.97,5.79,4.02,6.65,-0.25,0.16,0.31,3420,40769
0,-0.07,-0.05,0.99,5.73,3.05,6.04,-0.25,0.16,0.3,3421,40779
0,-0.07,-0.04,1.01,5.85,2.26,5.24,-0.24,0.15,0.31,3422,40789
0,-0.07,-0.04,1.04,5.85,1.4,4.09,-0.25,0.15,0.31,3423,40799
0,-0.06,-0.04,1.06,4.15,0.85,3.41,-0.25,0.15,0.31,3424,40809
0,-0.08,-0.03,1.05,2.68,1.1,2.5,-0.25,0.15,0.31,3425,40819
0,-0.09,-0.04,1.05,1.59,2.13,-0.12,-0.25,0.16,0.31,3426,40829
0,-0.06,-0.05,1.03,0.85,2.99,-2.74,-0.25,0.15,0.31,3427,40839
0,-0,-0.05,1.01,0.49,3.11,-3.11,-0.24,0.15,0.31,3428,40849
0,0.01,-0.06,0.99,2.01,2.62,-1.46,-0.24,0.15,0.31,3429,40859
0,0.01,-0.07,1.01,3.41,1.95,-0.3,-0.24,0.15,0.31,3430,40869
0,0.01,-0.07,1.02,3.66,1.65,0.55,-0.24,0.15,0.31,3431,40879
0,0.02,-0.06,1.02,3.11,0.61,2.13,-0.25,0.15,0.31,3432,40889
0,0,-0.05,1.03,3.11,-1.28,3.72,-0.25,0.16,0.31,3433,40899
0,-0.03,-0.04,1.04,2.44,-1.59,3.66,-0.25,0.16,0.31,3434,40909
0,-0.04,-0.04,1.02,1.83,-1.59,2.26,-0.25,0.15,0.31,3435,40919
0,-0.04,-0.03,1.03,2.01,-2.13,1.52,-0.24,0.15,0.31,3436,40929
0,-0.02,-0.04,1.04,0.06,-1.22,0.85,-0.25,0.15,0.31,3437,40939
0,0.01,-0.03,1,-0.37,-1.28,1.59,-0.25,0.15,0.31,3438,40949
0,0.01,-0.03,1.01,0.3,-1.83,2.44,-0.25,0.16,0.31,3439,40959
0,0.02,-0.03,1.02,0.49,-2.68,3.05,-0.25,0.15,0.31,3440,40969
0,0.02,-0.02,1.04,0,-3.66,4.27,-0.24,0.15,0.31,3441,40979
0,-0,-0.01,1.04,-0.49,-3.72,5,-0.24,0.15,0.31,3442,40989
0,-0.02,-0.01,1.04,-0.67,-2.68,4.02,-0.25,0.15,0.31,3443,40999
0,-0.02,-0.01,1.06,-1.16,-1.89,3.05,-0.25,0.15,0.31,3444,41009
0,-0.04,-0.01,1.06,-2.8,-1.28,2.13,-0.24,0.15,0.31,3445,41019
0,-0.05,-0.01,1.03,-4.33,-0.18,0.49,-0.25,0.15,0.31,3446,41029
0,-0.03,-0.01,1,-4.02,-0.61,-0.85,-0.25,0.15,0.31,3447,41039
0,-0.03,-0.02,1,-2.99,-2.13,-0.85,-0.25,0.15,0.31,3448,41049
0,-0.03,-0.01,1.02,-3.11,-2.93,-0.73,-0.25,0.15,0.31,3449,41059
0,-0.03,-0.01,1,-2.99,-3.48,-0.98,-0.25,0.15,0.31,3450,41069
0,-0,-0.01,1.02,-2.74,-3.6,-1.22,-0.25,0.16,0.31,3451,41079
0,0.02,-0.01,1.02,-2.99,-2.87,0.06,-0.25,0.15,0.31,3452,41089
0,0.02,-0.01,1.02,-3.17,-2.68,1.89,-0.25,0.15,0.31,3453,41099
0,0.02,-0.01,1.02,-3.41,-1.77,3.11,-0.25,0.15,0.31,3454,41109
0,0.01,-0.01,1.02,-4.02,-1.22,4.39,-0.25,0.15,0.31,3455,41119
0,-0.01,-0.01,1.01,-4.45,0.61,4.7,-0.25,0.15,0.31,3456,41129
0,-0,-0.01,0.99,-3.96,2.5,4.82,-0.24,0.15,0.31,3457,41139
0,-0.01,-0.02,1.01,-3.17,1.83,5.61,-0.25,0.16,0.31,3458,41149
0,-0.02,-0.02,1.02,-4.7,2.07,5.37,-0.24,0.15,0.31,3459,41159
0,-0.02,-0.02,0.99,-5,3.23,5.55,-0.24,0.15,0.31,3460,41169
0,-0.04,-0.01,0.99,-4.45,3.78,5.55,-0.24,0.15,0.31,3461,41179
0,-0.06,-0.02,1,-3.54,2.26,4.7,-0.24,0.15,0.31,3462,41189
0,-0.05,-0.03,1,-3.96,2.2,3.66,-0.24,0.16,0.31,3463,41199
0,-0.04,-0.03,0.98,-4.15,2.32,3.35,-0.24,0.16,0.3,3464,41209
0,-0.06,-0.03,0.96,-2.93,0.61,2.74,-0.24,0.16,0.31,3465,41219
0,-0.06,-0.04,0.98,-1.77,0.12,0.98,-0.24,0.15,0.31,3466,41229
0,-0.03,-0.05,0.98,-1.95,-0.43,0,-0.24,0.15,0.31,3467,41239
0,-0.01,-0.05,0.98,-1.16,-0.12,0.43,-0.24,0.15,0.31,3468,41249
0,-0.01,-0.05,0.99,-0.24,-0.12,0.55,-0.24,0.15,0.31,3469,41259
0,0.01,-0.04,1.01,0.24,-0.55,1.16,-0.24,0.15,0.31,3470,41269
0,0.01,-0.04,1.02,0.12,-0.67,2.26,-0.24,0.16,0.31,3471,41279
0,-0.02,-0.04,1.04,-0.91,-0.67,2.44,-0.24,0.15,0.31,3472,41289
0,-0.05,-0.04,1,-1.59,0,0.79,-0.24,0.15,0.31,3473,41299
0,-0.04,-0.03,1.01,-0.79,0.55,-0.18,-0.24,0.15,0.31,3474,41309
0,-0.04,-0.04,1,-0.85,1.34,-1.52,-0.24,0.15,0.31,3475,41319
0,0,-0.04,0.99,-0.12,0.98,-2.32,-0.24,0.16,0.31,3476,41329
0,0.04,-0.04,1,0.79,-0.79,-0.85,-0.24,0.16,0.31,3477,41339
0,0.02,-0.04,1,-0.24,-1.46,1.16,-0.24,0.15,0.31,3478,41349
0,-0,-0.04,0.98,-0.18,-1.71,1.77,-0.24,0.15,0.31,3479,41359
0,-0.02,-0.04,0.99,0.67,-2.26,1.34,-0.24,0.15,0.32,3480,41369
0,-0,-0.04,1,0.61,-1.46,0.98,-0.24,0.15,0.31,3481,41379
0,0,-0.04,1.01,0.67,-1.28,1.77,-0.24,0.15,0.31,3482,41389
0,-0,-0.04,1.02,-0.3,-0.43,2.07,-0.24,0.15,0.31,3483,41399
0,-0,-0.03,1,-0.37,-0.24,2.56,-0.24,0.15,0.31,3484,41409
0,-0.02,-0.03,1,-0.12,-0.67,3.11,-0.24,0.15,0.32,3485,41419
0,-0.04,-0.03,1,-0.18,-1.16,2.62,-0.24,0.15,0.31,3486,41429
0,-0.03,-0.04,1,-0.3,-1.65,0.98,-0.24,0.15,0.31,3487,41439
0,0,-0.04,0.99,-0.49,-0.91,0.98,-0.24,0.15,0.31,3488,41449
0,0.04,-0.05,0.99,0.37,0.43,2.68,-0.24,0.15,0.31,3489,41459
0,0.01,-0.05,0.99,1.46,0.67,4.63,-0.24,0.15,0.31,3490,41469
0,-0,-0.04,1.01,1.89,1.52,4.63,-0.24,0.15,0.31,3491,41479
0,-0,-0.03,1.01,1.52,1.46,5.18,-0.24,0.15,0.31,3492,41489
0,-0.02,-0.03,1.02,1.52,1.22,5.3,-0.24,0.15,0.31,3493,41499
0,-0.06,-0.02,1.03,1.22,0.55,3.84,-0.24,0.15,0.31,3494,41509
0,-0.06,-0.03,1.04,0.43,0.85,0.73,-0.24,0.15,0.31,3495,41519
0,-0.02,-0.03,1.03,-0.85,0.85,-1.59,-0.24,0.15,0.31,3496,41529
0,0.01,-0.04,1,-1.1,0.85,-1.46,-0.24,0.15,0.32,3497,41539
0,0.01,-0.04,0.99,-0.55,-0.24,-0.12,-0.24,0.15,0.32,3498,41549
0,-0.01,-0.05,1,-0.18,-0.67,-0.24,-0.24,0.15,0.31,3499,41559
0,0.01,-0.04,1.01,0.24,-1.34,0,-0.24,0.15,0.31,3500,41569
0,0.01,-0.04,1.02,-0.37,-0.98,0.73,-0.24,0.16,0.31,3501,41579
0,-0.01,-0.04,1.01,-1.04,-0.85,0.91,-0.24,0.15,0.31,3502,41589
0,-0.01,-0.04,1,-0.67,-0.79,0.61,-0.24,0.15,0.31,3503,41599
0,-0.03,-0.04,1.01,-0.73,-1.46,0.18,-0.24,0.15,0.31,3504,41609
0,-0.04,-0.04,1.02,-2.01,-2.44,-0.79,-0.24,0.15,0.32,3505,41619
0,-0.04,-0.03,1,-1.95,-3.66,-1.46,-0.24,0.15,0.31,3506,41629
0,-0.06,-0.03,1.01,-2.01,-4.45,-2.68,-0.24,0.15,0.31,3507,41639
0,-0.04,-0.04,1.01,-2.13,-4.02,-5,-0.24,0.15,0.31,3508,41649
0,0,-0.04,1.01,-2.44,-3.41,-5.85,-0.24,0.15,0.32,3509,41659
0,0.03,-0.04,1,-2.32,-3.48,-4.57,-0.24,0.15,0.32,3510,41669
0,0.02,-0.05,1,-1.65,-2.87,-3.96,-0.24,0.15,0.31,3511,41679
0,0.02,-0.04,1,-1.1,-2.56,-3.35,-0.24,0.15,0.31,3512,41689
0,-0,-0.04,1.02,-0.98,-2.26,-2.5,-0.24,0.15,0.31,3513,41699
0,-0.01,-0.04,1.01,-1.59,-1.83,-2.32,-0.25,0.15,0.31,3514,41709
0,-0.01,-0.04,1.01,-1.4,-1.52,-2.32,-0.24,0.15,0.31,3515,41719
0,-0.04,-0.03,1.04,-2.01,-2.2,-2.93,-0.24,0.15,0.32,3516,41729
0,-0.03,-0.04,1.05,-4.39,-2.93,-4.15,-0.24,0.15,0.31,3517,41739
0,-0.01,-0.04,1.02,-5.91,-2.74,-4.94,-0.24,0.15,0.31,3518,41749
0,0.01,-0.04,0.98,-5.67,-2.68,-4.33,-0.25,0.15,0.31,3519,41759
0,0,-0.05,0.97,-3.9,-1.77,-3.66,-0.25,0.15,0.31,3520,41769
0,-0.01,-0.05,0.99,-2.8,-1.4,-3.66,-0.25,0.15,0.32,3521,41779
0,-0.01,-0.05,1,-3.29,-1.04,-4.27,-0.25,0.15,0.32,3522,41789
0,0.01,-0.05,0.99,-3.23,-1.52,-4.76,-0.24,0.15,0.32,3523,41799
0,0.03,-0.05,0.98,-2.62,-2.5,-3.23,-0.25,0.15,0.31,3524,41809
0,0.01,-0.05,0.99,-1.83,-2.26,-2.01,-0.25,0.15,0.31,3525,41819
0,-0,-0.05,0.99,-1.89,-1.95,-2.07,-0.25,0.15,0.31,3526,41829
0,0.01,-0.05,0.98,-1.34,-1.16,-2.07,-0.25,0.15,0.32,3527,41839
0,-0.01,-0.05,1,0.12,-1.04,-1.22,-0.25,0.15,0.31,3528,41849
0,-0.02,-0.05,1.02,-0.79,-0.3,-2.68,-0.25,0.15,0.31,3529,41859
0,0.01,-0.05,1.01,-1.77,-0.12,-3.11,-0.25,0.15,0.32,3530,41869
0,0,-0.05,0.99,-1.28,-0.91,-2.5,-0.25,0.15,0.31,3531,41879
0,-0,-0.05,1.01,-0.67,-1.52,-2.56,-0.25,0.15,0.31,3532,41889
0,0.01,-0.05,1.01,-1.16,-1.22,-2.56,-0.25,0.15,0.31,3533,41899
0,0.01,-0.05,1.01,-1.34,-1.89,-1.89,-0.25,0.15,0.31,3534,41909
0,0.01,-0.05,1.01,-1.34,-1.52,-2.2,-0.25,0.15,0.32,3535,41919
0,0.03,-0.05,1.01,-0.85,-0.91,-2.07,-0.25,0.15,0.31,3536,41929
0,0.04,-0.05,1.02,-0.55,-0.73,-0.67,-0.25,0.15,0.31,3537,41939
0,0.02,-0.04,1.03,-0.67,-0.49,0.37,-0.25,0.15,0.31,3538,41949
0,0,-0.04,1.04,-1.52,0,0,-0.25,0.15,0.31,3539,41959
0,0.02,-0.04,1.03,-2.38,0.79,-0.43,-0.25,0.15,0.32,3540,41969
0,0.04,-0.05,1,-2.32,1.83,0.24,-0.25,0.15,0.31,3541,41979
0,0.03,-0.05,0.99,-1.16,2.93,1.71,-0.25,0.15,0.31,3542,41989
0,0.01,-0.05,1.01,-0.73,3.29,1.83,-0.25,0.15,0.31,3543,41999
0,0.01,-0.05,1,-1.16,1.52,1.65,-0.25,0.15,0.31,3544,42009
0,-0.02,-0.04,1.01,-1.46,-0.3,1.22,-0.25,0.15,0.31,3545,42019
0,-0.02,-0.04,1.02,-2.2,-1.4,0.06,-0.25,0.15,0.31,3546,42029
0,0,-0.04,1.01,-2.8,-0.79,-0.85,-0.25,0.15,0.31,3547,42039
0,0.02,-0.05,1.01,-2.44,-0.91,-0.49,-0.25,0.15,0.31,3548,42049
0,0.02,-0.05,1.01,-2.44,-0.55,0.37,-0.25,0.15,0.31,3549,42059
0,0.02,-0.05,1.02,-2.8,0,0.18,-0.25,0.15,0.31,3550,42069
0,0.03,-0.05,1,-2.5,-0.12,0.91,-0.25,0.15,0.31,3551,42079
0,0.03,-0.05,1.02,-2.2,0.73,1.83,-0.25,0.15,0.31,3552,42089
0,0.01,-0.05,1.02,-2.8,1.16,2.56,-0.25,0.15,0.32,3553,42099
0,-0,-0.04,1,-2.99,1.1,2.5,-0.25,0.15,0.31,3554,42109
0,-0.02,-0.04,1,-2.2,0.73,2.01,-0.25,0.15,0.31,3555,42119
0,-0.04,-0.04,1.02,-2.62,0.91,0.79,-0.25,0.16,0.31,3556,42129
0,-0.03,-0.04,1,-3.29,0.61,-0.79,-0.25,0.16,0.31,3557,42139
0,-0.03,-0.04,0.99,-2.56,-1.16,-1.34,-0.25,0.15,0.31,3558,42149
0,-0.03,-0.05,0.99,-2.38,-1.4,-2.38,-0.25,0.15,0.31,3559,42159
0,-0,-0.05,0.99,-1.65,-2.38,-3.41,-0.25,0.15,0.31,3560,42169
0,0.03,-0.05,1,-0.91,-2.26,-2.93,-0.25,0.16,0.31,3561,42179
0,0.05,-0.05,1.02,-1.28,-1.46,-1.34,-0.25,0.16,0.31,3562,42189
0,0.03,-0.05,1,-2.38,-0.79,0.24,-0.25,0.15,0.31,3563,42199
0,0.02,-0.05,0.99,-1.89,-0.12,1.1,-0.25,0.15,0.31,3564,42209
0,0.01,-0.05,0.99,-1.1,0.37,1.52,-0.25,0.15,0.31,3565,42219
0,-0.01,-0.04,0.99,-1.1,0.91,1.52,-0.25,0.15,0.31,3566,42229
0,-0.03,-0.04,0.99,-1.22,1.22,0.3,-0.25,0.15,0.31,3567,42239
0,-0.03,-0.05,0.98,-0.85,0.73,-1.04,-0.25,0.15,0.31,3568,42249
0,-0.01,-0.05,0.98,-0.73,0.55,-1.95,-0.25,0.15,0.31,3569,42259
0,0.01,-0.05,0.97,-0.55,-0.12,-1.46,-0.25,0.15,0.31,3570,42269
0,0,-0.05,0.97,0.55,-0.91,-0.79,-0.25,0.15,0.31,3571,42279
0,0,-0.05,0.97,1.95,-1.4,-0.73,-0.25,0.15,0.31,3572,42289
0,0.01,-0.05,0.99,2.56,-1.28,-0.24,-0.25,0.15,0.31,3573,42299
0,0.01,-0.05,1.01,2.2,-1.59,0.3,-0.25,0.15,0.31,3574,42309
0,0,-0.04,1,2.13,-0.98,1.04,-0.25,0.15,0.31,3575,42319
0,-0.03,-0.04,1.01,2.2,0.3,0.61,-0.25,0.16,0.31,3576,42329
0,-0.05,-0.04,1.01,2.32,1.22,-1.34,-0.25,0.15,0.31,3577,42339
0,-0.03,-0.04,1.01,1.71,2.07,-3.05,-0.25,0.15,0.31,3578,42349
0,-0.02,-0.05,1,1.34,1.95,-3.54,-0.25,0.15,0.31,3579,42359
0,-0.01,-0.05,1,1.59,1.34,-3.48,-0.25,0.15,0.31,3580,42369
0,0.01,-0.05,1.01,1.46,0.98,-3.54,-0.25,0.15,0.31,3581,42379
0,0.03,-0.05,1,1.22,0.06,-2.56,-0.25,0.15,0.31,3582,42389
0,0.01,-0.05,1.03,1.46,-0.49,-0.73,-0.25,0.15,0.32,3583,42399
0,-0,-0.05,1.03,0,-0.43,-1.1,-0.25,0.15,0.31,3584,42409
0,-0.01,-0.05,1.02,-0.43,0,-1.34,-0.25,0.15,0.31,3585,42419
0,0,-0.05,1.01,-0.67,0.67,-1.65,-0.25,0.15,0.31,3586,42429
0,0.01,-0.05,0.99,-0.12,0.73,-1.65,-0.25,0.15,0.31,3587,42439
0,0.01,-0.05,1,0.73,0,-1.04,-0.25,0.15,0.31,3588,42449
0,0,-0.05,1.02,0.3,-0.67,-0.85,-0.25,0.15,0.32,3589,42459
0,0.01,-0.05,1.02,-0.91,-0.79,-1.16,-0.25,0.15,0.32,3590,42469
0,0.03,-0.05,1,-1.22,-0.79,-0.55,-0.25,0.15,0.32,3591,42479
0,-0,-0.04,1.01,-0.24,-1.83,0.24,-0.25,0.15,0.31,3592,42489
0,-0.01,-0.05,1.04,-1.71,-1.22,-1.16,-0.25,0.15,0.31,3593,42499
0,0.02,-0.04,1.01,-2.74,-0.12,-1.71,-0.25,0.15,0.31,3594,42509
0,0.01,-0.04,1,-1.77,0.06,-0.73,-0.25,0.15,0.31,3595,42519
0,-0,-0.03,1.01,-1.1,0.24,-0.73,-0.25,0.15,0.31,3596,42529
0,0,-0.04,1.02,-1.71,0.49,-1.46,-0.25,0.15,0.31,3597,42539
0,0.03,-0.04,1,-2.38,0.49,-0.79,-0.25,0.15,0.31,3598,42549
0,0.04,-0.04,0.99,-1.59,0.12,1.16,-0.25,0.16,0.31,3599,42559
0,0,-0.04,1,-0.98,-1.28,2.38,-0.25,0.15,0.31,3600,42569
0,-0.02,-0.04,1,-1.04,-0.91,1.52,-0.25,0.15,0.31,3601,42579
0,-0.03,-0.04,1,-0.73,-0.61,0,-0.25,0.15,0.32,3602,42589
0,-0.02,-0.04,1,-1.28,-0.79,-1.28,-0.25,0.15,0.32,3603,42599
0,-0.01,-0.04,0.98,-1.22,-0.85,-2.44,-0.25,0.15,0.32,3604,42609
0,-0.01,-0.04,0.97,0.24,-1.46,-2.8,-0.25,0.15,0.31,3605,42619
0,0.01,-0.04,1,1.28,-1.4,-3.66,-0.25,0.15,0.31,3606,42629
0,0.04,-0.04,1.01,0.73,-2.01,-2.99,-0.25,0.15,0.32,3607,42639
0,0.04,-0.04,1.01,0.49,-2.01,-1.34,-0.25,0.15,0.32,3608,42649
0,0.04,-0.04,1.02,0.55,-0.98,-0.55,-0.25,0.15,0.32,3609,42659
0,0.06,-0.04,1.01,0.24,-0.55,0.91,-0.25,0.15,0.31,3610,42669
0,0.04,-0.04,1.01,0.49,-0.18,2.56,-0.25,0.15,0.31,3611,42679
0,0.01,-0.04,1.01,0.18,0.24,2.62,-0.25,0.15,0.31,3612,42689
0,0.01,-0.04,1,0.12,0.73,2.44,-0.25,0.15,0.31,3613,42699
0,0,-0.04,1,0,0.24,2.44,-0.25,0.15,0.31,3614,42709
0,-0.01,-0.04,0.99,0.18,0.06,2.01,-0.25,0.15,0.32,3615,42719
0,-0.01,-0.04,0.98,1.04,-0.24,1.34,-0.25,0.15,0.31,3616,42729
0,-0.01,-0.04,1,2.13,-1.04,0.98,-0.25,0.15,0.31,3617,42739
0,0.01,-0.04,1.03,1.52,-0.85,0.43,-0.25,0.15,0.31,3618,42749
0,0.01,-0.04,1.02,0.55,-1.04,0.79,-0.25,0.15,0.31,3619,42759
0,0,-0.04,1.02,0.49,-1.16,1.1,-0.25,0.15,0.32,3620,42769
0,-0,-0.03,1.01,0.43,-0.24,0.37,-0.25,0.15,0.32,3621,42779
0,0.01,-0.03,1.01,0.67,-0.61,0.12,-0.25,0.15,0.32,3622,42789
0,0.01,-0.04,1.01,0.49,-0.3,0.3,-0.25,0.15,0.31,3623,42799
0,0.01,-0.04,1.01,0.55,-0.67,0.55,-0.25,0.16,0.31,3624,42809
0,0.01,-0.04,0.99,0.37,-0.61,0.12,-0.25,0.15,0.31,3625,42819
0,0.01,-0.03,1,1.65,-1.46,0.37,-0.25,0.15,0.32,3626,42829
0,-0.01,-0.03,1.05,0.61,-2.44,0.18,-0.25,0.15,0.32,3627,42839
0,0,-0.03,1.04,-1.77,-2.56,-0.55,-0.25,0.15,0.32,3628,42849
0,0.02,-0.04,1,-2.07,-1.71,-0.3,-0.26,0.15,0.31,3629,42859
0,0.03,-0.04,1,-0.55,-1.59,0.55,-0.25,0.15,0.32,3630,42869
0,0.01,-0.04,1.02,-0.18,-1.28,0.79,-0.26,0.15,0.31,3631,42879
0,0.02,-0.04,1.02,-1.28,-0.55,0.79,-0.25,0.15,0.32,3632,42889
0,0.02,-0.04,1,-0.73,-1.4,1.28,-0.25,0.15,0.32,3633,42899
0,-0,-0.04,1.01,0,-1.34,1.04,-0.25,0.15,0.31,3634,42909
0,0.01,-0.04,1.02,-0.61,-0.43,0.3,-0.25,0.15,0.31,3635,42919
0,0.01,-0.04,1.02,-0.49,-1.16,0.85,-0.26,0.15,0.31,3636,42929
0,0.01,-0.05,1,-2.74,-0.3,0.67,-0.25,0.15,0.31,3637,42939
0,0.02,-0.04,0.99,-1.52,-1.65,1.52,-0.25,0.15,0.31,3638,42949
0,0.02,-0.04,1.01,-1.28,-2.5,2.07,-0.25,0.15,0.32,3639,42959
0,0,-0.04,1.01,-1.77,-2.56,2.38,-0.25,0.15,0.31,3640,42969
0,-0.01,-0.05,1.01,-1.89,-2.01,1.34,-0.25,0.15,0.31,3641,42979
0,0,-0.05,0.99,-1.34,-1.04,0.37,-0.25,0.15,0.31,3642,42989
0,0.02,-0.05,0.99,-0.61,-0.73,0.37,-0.25,0.15,0.31,3643,42999
0,0.04,-0.05,1,-0.24,-0.73,1.28,-0.25,0.15,0.31,3644,43009
0,0.03,-0.04,1.01,-0.43,-0.67,2.38,-0.25,0.15,0.32,3645,43019
0,0,-0.04,1.01,-0.49,-0.73,2.68,-0.25,0.15,0.32,3646,43029
0,-0.01,-0.03,1.02,-0.49,-1.16,2.13,-0.25,0.15,0.32,3647,43039
0,-0.02,-0.04,1.04,-1.71,-0.67,0.55,-0.25,0.15,0.31,3648,43049
0,-0,-0.04,1.03,-2.8,-0.98,-0.49,-0.25,0.15,0.31,3649,43059
0,0.01,-0.04,1.01,-3.54,-0.55,-1.1,-0.25,0.15,0.31,3650,43069
0,0.02,-0.05,1,-3.41,-0.55,-1.28,-0.25,0.15,0.32,3651,43079
0,0.02,-0.05,0.99,-2.93,-1.1,-1.52,-0.25,0.15,0.31,3652,43089
0,0.02,-0.05,0.99,-2.26,-1.1,-1.77,-0.25,0.15,0.31,3653,43099
0,0.01,-0.05,1,-1.59,-1.46,-1.95,-0.25,0.15,0.31,3654,43109
0,0.03,-0.05,1.01,-1.89,-1.4,-2.2,-0.26,0.15,0.31,3655,43119
0,0.05,-0.05,1.01,-2.38,-1.52,-1.16,-0.26,0.15,0.31,3656,43129
0,0.05,-0.05,1,-2.5,-1.28,0.37,-0.26,0.15,0.31,3657,43139
0,0.03,-0.05,1,-2.07,-0.67,0.49,-0.25,0.15,0.32,3658,43149
0,0.02,-0.04,1,-1.65,-0.55,0.18,-0.25,0.15,0.31,3659,43159
0,0.02,-0.04,1.01,-1.59,0.37,-0.18,-0.26,0.15,0.31,3660,43169
0,0.01,-0.04,1.02,-2.07,1.04,-0.85,-0.26,0.15,0.31,3661,43179
0,0.03,-0.05,1,-2.38,1.4,-1.34,-0.26,0.15,0.31,3662,43189
0,0.02,-0.05,1,-1.89,0.55,-0.73,-0.26,0.15,0.31,3663,43199
0,0.02,-0.05,1,-2.32,0.3,-0.61,-0.26,0.15,0.31,3664,43209
0,0.01,-0.05,0.99,-2.44,-0.37,-0.98,-0.25,0.15,0.31,3665,43219
0,0.01,-0.05,1,-1.52,-1.1,-1.34,-0.25,0.15,0.31,3666,43229
0,0.03,-0.05,1.01,-2.32,0.24,-1.95,-0.26,0.15,0.31,3667,43239
0,0.05,-0.05,0.98,-2.01,0.79,-1.28,-0.26,0.15,0.31,3668,43249
0,0.04,-0.05,0.98,-0.55,0.43,-0.06,-0.26,0.15,0.32,3669,43259
0,0.02,-0.05,1.01,0.12,0.73,-0.55,-0.26,0.15,0.31,3670,43269
0,0.04,-0.05,1.01,-0.61,1.34,-0.37,-0.25,0.15,0.31,3671,43279
0,0.04,-0.05,1,-0.73,1.65,0.98,-0.26,0.15,0.31,3672,43289
0,0.01,-0.05,1.01,-0.49,1.71,1.34,-0.26,0.15,0.31,3673,43299
0,0,-0.05,1,-1.04,1.52,0.49,-0.25,0.15,0.31,3674,43309
0,0.01,-0.05,1,-0.43,0.79,0.3,-0.25,0.15,0.31,3675,43319
0,-0.01,-0.05,1.02,-0.85,0.18,0.3,-0.25,0.15,0.31,3676,43329
0,-0.01,-0.05,1.02,-2.13,0.24,-0.61,-0.25,0.15,0.31,3677,43339
0,-0,-0.04,1,-2.01,0.12,-1.16,-0.26,0.15,0.31,3678,43349
0,-0.01,-0.05,1,-1.4,0.49,-1.65,-0.26,0.15,0.31,3679,43359
0,-0,-0.04,1.01,-1.52,0.43,-2.68,-0.26,0.15,0.31,3680,43369
0,0.01,-0.04,1.02,-2.13,0.49,-2.8,-0.26,0.15,0.31,3681,43379
0,0.02,-0.04,1.01,-2.38,0.67,-2.62,-0.26,0.15,0.31,3682,43389
0,0.01,-0.04,1,-1.65,0.12,-2.26,-0.26,0.15,0.32,3683,43399
0,0.01,-0.04,1.01,-1.65,0.79,-2.99,-0.25,0.15,0.31,3684,43409
0,0.01,-0.05,0.99,-1.04,0.73,-3.17,-0.26,0.15,0.31,3685,43419
0,0.01,-0.05,1,-0.67,1.4,-3.29,-0.26,0.15,0.31,3686,43429
0,0.03,-0.05,1,-0.37,1.83,-3.29,-0.26,0.15,0.31,3687,43439
0,0.04,-0.05,1,-0.67,1.22,-2.38,-0.26,0.15,0.31,3688,43449
0,0.04,-0.05,1.01,-0.98,0.49,-1.4,-0.26,0.15,0.31,3689,43459
0,0.04,-0.05,0.99,-1.65,0.37,-0.79,-0.26,0.15,0.31,3690,43469
0,0.03,-0.05,0.98,-0.91,0.18,-0.18,-0.26,0.15,0.31,3691,43479
0,0.02,-0.04,1,-0.55,0.98,-0.73,-0.26,0.15,0.31,3692,43489
0,0.01,-0.04,1,0,0.79,-0.79,-0.26,0.15,0.31,3693,43499
0,0.01,-0.04,1.01,-0.3,1.46,-1.52,-0.26,0.15,0.32,3694,43509
0,0.02,-0.04,1,-0.43,2.01,-1.83,-0.26,0.15,0.31,3695,43519
0,0.02,-0.04,1,0.73,1.65,-1.46,-0.26,0.15,0.32,3696,43529
0,0.02,-0.05,1.02,0.3,2.07,-1.59,-0.26,0.15,0.31,3697,43539
0,0.03,-0.04,0.99,0,1.83,-0.98,-0.26,0.15,0.31,3698,43549
0,0.02,-0.04,1,0.98,1.52,0,-0.26,0.15,0.31,3699,43559
0,0.01,-0.04,1.02,1.1,1.46,0.06,-0.26,0.15,0.31,3700,43569
0,0.02,-0.04,1.02,-0.06,1.22,-0.06,-0.26,0.15,0.31,3701,43579
0,0.01,-0.03,1.02,-0.06,0.73,-0.18,-0.26,0.15,0.31,3702,43589
0,-0.01,-0.04,1.02,-1.1,1.04,-1.34,-0.26,0.15,0.31,3703,43599
0,0.01,-0.04,1.01,-1.95,1.77,-2.74,-0.26,0.15,0.31,3704,43609
0,0.03,-0.05,0.98,-1.52,2.07,-2.99,-0.26,0.15,0.31,3705,43619
0,0.03,-0.05,0.99,0,1.34,-2.32,-0.26,0.15,0.31,3706,43629
0,0.04,-0.05,1.02,-0.18,1.59,-2.01,-0.26,0.15,0.31,3707,43639
0,0.05,-0.05,1.03,-1.16,1.1,-0.91,-0.26,0.15,0.31,3708,43649
0,0.04,-0.05,1.03,-2.07,0.85,0.3,-0.26,0.15,0.31,3709,43659
0,0.02,-0.05,1.02,-2.26,0.49,0.79,-0.26,0.15,0.31,3710,43669
0,0.02,-0.05,1.03,-3.29,0.91,0.61,-0.26,0.15,0.31,3711,43679
0,0.03,-0.05,1,-3.48,1.71,1.1,-0.26,0.15,0.31,3712,43689
0,0.03,-0.05,0.98,-2.8,1.46,1.89,-0.26,0.15,0.31,3713,43699
0,0.02,-0.05,0.98,-1.34,1.59,2.5,-0.25,0.15,0.31,3714,43709
0,0,-0.05,0.99,-0.43,1.34,2.99,-0.26,0.15,0.31,3715,43719
0,-0,-0.04,1,0,1.4,2.87,-0.26,0.15,0.31,3716,43729
0,-0.01,-0.03,1.01,0.67,1.04,2.32,-0.26,0.15,0.31,3717,43739
0,-0,-0.04,1.03,-0.3,1.52,1.71,-0.26,0.15,0.31,3718,43749
0,0.01,-0.03,1,-0.85,1.34,1.89,-0.25,0.15,0.31,3719,43759
0,-0.01,-0.03,1,0.37,1.16,2.26,-0.25,0.15,0.31,3720,43769
0,-0,-0.03,1.01,0.18,2.26,1.28,-0.26,0.15,0.31,3721,43779
0,-0,-0.03,1.01,0.61,1.83,1.22,-0.25,0.15,0.31,3722,43789
0,-0.01,-0.04,1.03,-0.61,1.95,0.79,-0.25,0.15,0.31,3723,43799
0,0.01,-0.04,1.01,-1.77,1.83,0.3,-0.25,0.15,0.31,3724,43809
0,0.03,-0.04,0.98,-1.22,1.34,1.16,-0.25,0.15,0.32,3725,43819
0,0.02,-0.04,0.99,0.3,1.04,1.89,-0.25,0.15,0.31,3726,43829
0,0.01,-0.05,1.01,0.24,0.79,1.71,-0.25,0.15,0.31,3727,43839
0,0.03,-0.04,1.03,-0.91,1.04,2.13,-0.25,0.15,0.31,3728,43849
0,0.04,-0.05,1.01,-1.52,0.73,3.05,-0.25,0.16,0.31,3729,43859
0,0.03,-0.05,1,-1.16,1.52,3.6,-0.25,0.15,0.31,3730,43869
0,0.03,-0.05,1.01,-0.61,2.62,3.72,-0.25,0.15,0.31,3731,43879
0,0.01,-0.05,1.02,-0.98,2.13,4.15,-0.25,0.15,0.32,3732,43889
0,-0,-0.05,1.02,-2.26,2.5,3.9,-0.25,0.15,0.32,3733,43899
0,-0.01,-0.06,1,-1.95,2.62,3.11,-0.25,0.15,0.31,3734,43909
0,-0,-0.06,1,-1.4,2.07,2.93,-0.25,0.16,0.31,3735,43919
0,-0,-0.06,1.02,-1.77,1.65,2.74,-0.25,0.15,0.31,3736,43929
0,-0,-0.05,1,-2.38,0.37,2.93,-0.25,0.15,0.31,3737,43939
0,-0.01,-0.06,1,-1.04,0.06,2.68,-0.25,0.15,0.32,3738,43949
0,-0.01,-0.06,1.01,-0.43,0.06,2.38,-0.25,0.15,0.32,3739,43959
0,-0.01,-0.06,1.02,-0.85,0.79,1.89,-0.25,0.15,0.31,3740,43969
0,0,-0.06,1.01,-1.4,1.52,1.46,-0.25,0.15,0.31,3741,43979
0,0,-0.06,1,-0.55,1.16,1.65,-0.25,0.16,0.31,3742,43989
0,0,-0.06,1.03,-0.12,1.04,1.65,-0.25,0.15,0.32,3743,43999
0,-0,-0.06,1.03,-1.59,0.61,1.59,-0.25,0.15,0.32,3744,44009
0,0.01,-0.06,1,-2.01,0.49,2.01,-0.25,0.15,0.32,3745,44019
0,-0.01,-0.05,1,-1.04,0.18,2.5,-0.25,0.15,0.31,3746,44029
0,-0.02,-0.06,1.02,-1.1,0.55,1.4,-0.25,0.15,0.31,3747,44039
0,0,-0.05,1.03,-2.32,0.37,1.28,-0.25,0.16,0.31,3748,44049
0,-0.01,-0.05,1.01,-2.74,-0.06,1.34,-0.25,0.15,0.31,3749,44059
0,-0.03,-0.05,1.01,-2.2,-0.73,0.49,-0.25,0.15,0.31,3750,44069
0,-0.03,-0.04,1.02,-2.13,-0.67,-1.1,-0.25,0.15,0.31,3751,44079
0,-0.02,-0.05,1.01,-2.8,-0.91,-1.89,-0.25,0.15,0.31,3752,44089
0,0.01,-0.05,1,-2.68,-0.49,-2.26,-0.25,0.15,0.31,3753,44099
0,0.02,-0.06,0.99,-1.46,-0.3,-1.95,-0.25,0.16,0.31,3754,44109
0,0.05,-0.06,1,-1.04,0.12,-0.73,-0.25,0.15,0.31,3755,44119
0,0.04,-0.06,1,-0.85,0,0.61,-0.25,0.15,0.31,3756,44129
0,0.01,-0.06,1.01,-0.73,-0.61,1.34,-0.25,0.15,0.31,3757,44139
0,0.01,-0.05,1.03,-2.44,0.18,1.1,-0.25,0.15,0.31,3758,44149
0,0,-0.05,1,-3.48,-0.37,0.85,-0.25,0.16,0.31,3759,44159
0,0,-0.05,0.99,-2.99,-0.37,0.37,-0.25,0.16,0.31,3760,44169
0,-0.01,-0.06,1,-2.68,-0.12,-0.12,-0.25,0.16,0.31,3761,44179
0,0.01,-0.05,0.99,-2.99,-0.06,-0.43,-0.25,0.15,0.31,3762,44189
0,0.01,-0.06,0.99,-2.2,-0.55,-0.37,-0.25,0.15,0.31,3763,44199
0,0.02,-0.06,0.99,-1.59,-0.67,-0.06,-0.25,0.15,0.31,3764,44209
0,0.03,-0.06,1,-0.98,-0.12,0.55,-0.25,0.16,0.31,3765,44219
0,0.03,-0.06,1,-0.91,-0.12,1.4,-0.25,0.16,0.31,3766,44229
0,0.02,-0.06,0.99,-0.73,0.85,2.07,-0.25,0.16,0.31,3767,44239
0,0,-0.06,0.99,0.24,0.98,2.07,-0.25,0.16,0.31,3768,44249
0,-0.01,-0.05,0.99,0.91,0.79,1.65,-0.25,0.15,0.32,3769,44259
0,-0.02,-0.05,1.02,1.52,0.73,0.73,-0.25,0.15,0.31,3770,44269
0,-0,-0.05,1.03,0.55,-0.18,0.18,-0.25,0.16,0.31,3771,44279
0,-0,-0.05,1.04,-1.28,-0.55,0.43,-0.25,0.16,0.31,3772,44289
0,-0.01,-0.05,1.01,-1.46,-0.67,-0.12,-0.25,0.16,0.31,3773,44299
0,-0.01,-0.05,1.01,-0.98,-1.1,-0.37,-0.25,0.15,0.31,3774,44309
0,0,-0.04,1.02,-0.85,-1.4,-0.49,-0.25,0.15,0.31,3775,44319
0,-0.01,-0.05,1.03,-1.52,-1.89,-0.43,-0.25,0.15,0.31,3776,44329
0,-0.01,-0.05,1.01,-2.56,-1.4,-1.16,-0.25,0.15,0.31,3777,44339
0,-0,-0.05,0.99,-2.01,-1.4,-1.95,-0.25,0.16,0.31,3778,44349
0,0.01,-0.06,0.99,-0.91,-1.16,-2.07,-0.25,0.16,0.31,3779,44359
0,0.04,-0.06,1.01,-0.85,-0.73,-1.52,-0.25,0.15,0.31,3780,44369
0,0.03,-0.05,0.99,-1.4,-1.04,-0.3,-0.25,0.15,0.31,3781,44379
0,0.01,-0.05,0.98,-0.37,-0.43,-0.3,-0.25,0.15,0.31,3782,44389
0,-0,-0.05,0.99,0.73,-0.61,-0.85,-0.25,0.15,0.31,3783,44399
0,0,-0.05,1.01,0.06,-0.12,-0.98,-0.25,0.16,0.31,3784,44409
0,0,-0.05,1,-0.61,-0.43,-1.16,-0.25,0.16,0.31,3785,44419
0,-0.01,-0.04,0.99,-0.3,-1.28,-1.22,-0.25,0.15,0.31,3786,44429
0,-0.01,-0.04,1.01,0.3,-1.46,-2.26,-0.25,0.15,0.31,3787,44439
0,0.01,-0.04,1.02,-0.3,-1.46,-2.68,-0.25,0.15,0.31,3788,44449
0,0.02,-0.04,1.02,-1.52,-0.79,-2.2,-0.25,0.16,0.31,3789,44459
0,0.02,-0.04,1,-1.4,-0.73,-2.26,-0.25,0.16,0.31,3790,44469
0,0.03,-0.05,0.99,-1.04,-0.24,-2.07,-0.25,0.15,0.31,3791,44479
0,0.03,-0.05,1,-0.61,0.43,-1.71,-0.25,0.15,0.31,3792,44489
0,0.03,-0.05,0.99,-0.24,0.55,-1.4,-0.25,0.15,0.32,3793,44499
0,0.03,-0.05,0.98,-0.06,0.73,-1.28,-0.25,0.15,0.31,3794,44509
0,0.03,-0.05,0.99,0.79,0.24,-0.79,-0.25,0.15,0.31,3795,44519
0,0.03,-0.05,1,0.73,-0.12,-0.18,-0.25,0.15,0.31,3796,44529
0,0.03,-0.05,1.01,0.49,0.37,0.06,-0.25,0.15,0.31,3797,44539
0,0.02,-0.05,1.01,0.06,0.55,0.43,-0.25,0.16,0.31,3798,44549
0,0.03,-0.05,1,0.37,0.85,0.67,-0.25,0.15,0.31,3799,44559
0,0.01,-0.05,1.02,0.79,0.73,0.61,-0.25,0.15,0.31,3800,44569
0,0.02,-0.05,1.02,-0.18,1.04,0.43,-0.25,0.15,0.31,3801,44579
0,0.01,-0.05,1.01,-0.37,0.85,0.3,-0.25,0.15,0.31,3802,44589
0,0.01,-0.06,1.01,-0.73,1.4,0.06,-0.25,0.15,0.31,3803,44599
0,0.03,-0.05,1,-0.55,1.34,0.49,-0.25,0.15,0.31,3804,44609
0,0.02,-0.05,1.02,-0.67,1.22,1.1,-0.25,0.15,0.31,3805,44619
0,0.02,-0.04,1,-1.1,0.79,1.83,-0.25,0.15,0.31,3806,44629
0,-0.01,-0.05,1.01,-0.24,0.49,1.77,-0.25,0.15,0.31,3807,44639
0,-0.02,-0.05,1.03,-0.85,0.43,0.24,-0.25,0.15,0.31,3808,44649
0,0.02,-0.05,1.02,-1.83,1.1,-0.3,-0.25,0.15,0.31,3809,44659
0,0.02,-0.05,0.99,-1.4,0.91,0.24,-0.25,0.15,0.31,3810,44669
0,0.01,-0.05,0.99,-0.49,0.98,0.3,-0.25,0.15,0.31,3811,44679
0,-0,-0.05,1.01,0.43,0.91,-0.12,-0.25,0.15,0.32,3812,44689
0,0.01,-0.05,1.02,-0.18,1.04,-0.49,-0.25,0.15,0.32,3813,44699
0,0.02,-0.05,1.01,-0.67,1.59,-0.18,-0.25,0.16,0.31,3814,44709
0,0.02,-0.05,1.01,-0.79,1.89,0.24,-0.25,0.15,0.31,3815,44719
0,0.02,-0.05,1.01,-1.04,1.83,0.85,-0.25,0.16,0.31,3816,44729
0,0,-0.05,1.03,-1.95,1.71,0.37,-0.25,0.15,0.31,3817,44739
0,0.01,-0.06,1.01,-3.35,1.65,-0.61,-0.25,0.15,0.31,3818,44749
0,0.03,-0.06,0.98,-3.17,1.95,-0.37,-0.25,0.15,0.31,3819,44759
0,0.02,-0.06,0.98,-1.52,1.77,0.61,-0.25,0.15,0.31,3820,44769
0,0.03,-0.06,0.99,-1.04,2.5,1.04,-0.25,0.15,0.31,3821,44779
0,0.02,-0.05,0.99,-0.49,1.95,2.2,-0.25,0.15,0.31,3822,44789
0,-0.01,-0.05,1.01,-0.37,1.16,2.62,-0.25,0.15,0.31,3823,44799
0,-0.01,-0.05,1.01,-1.1,1.77,1.16,-0.25,0.15,0.32,3824,44809
0,0.01,-0.05,0.99,-0.67,1.65,0.85,-0.25,0.15,0.31,3825,44819
0,0.01,-0.05,1.01,0.06,1.52,1.34,-0.25,0.15,0.31,3826,44829
0,-0.01,-0.05,1.02,-0.79,1.52,0.79,-0.25,0.16,0.31,3827,44839
0,0,-0.05,1,-1.28,1.52,0.43,-0.25,0.15,0.31,3828,44849
0,-0,-0.05,1,-0.3,1.89,0.18,-0.25,0.16,0.31,3829,44859
0,0,-0.06,1.01,0.06,2.01,0.12,-0.25,0.15,0.31,3830,44869
0,0.01,-0.06,1.01,-0.55,2.44,0.24,-0.25,0.15,0.31,3831,44879
0,-0,-0.06,1,-0.3,2.13,0.49,-0.25,0.15,0.31,3832,44889
0,-0,-0.06,1,-0.18,2.13,0.37,-0.25,0.16,0.31,3833,44899
0,-0.01,-0.06,1,-0.06,1.83,-0.18,-0.25,0.15,0.31,3834,44909
0,-0,-0.06,1,0.37,1.28,-0.06,-0.25,0.15,0.31,3835,44919
0,0,-0.07,1.02,0.24,1.16,0,-0.25,0.15,0.31,3836,44929
0,-0,-0.06,1.02,-0.73,1.16,0.3,-0.25,0.15,0.31,3837,44939
0,-0.01,-0.06,1.02,-0.73,1.22,0.12,-0.25,0.15,0.31,3838,44949
0,-0.02,-0.07,1.03,-1.22,1.59,-0.98,-0.25,0.15,0.31,3839,44959
0,0.01,-0.06,1.02,-2.01,1.65,-1.16,-0.25,0.16,0.31,3840,44969
0,0.01,-0.06,1.01,-2.01,1.1,-0.37,-0.25,0.16,0.31,3841,44979
0,-0.01,-0.06,1.01,-1.77,0.49,0.06,-0.25,0.15,0.31,3842,44989
0,-0.02,-0.06,1.01,-0.98,0.67,-0.67,-0.25,0.15,0.31,3843,44999
0,-0.01,-0.06,1.02,-0.73,0.12,-1.28,-0.25,0.16,0.31,3844,45009
0,0,-0.06,1.02,-1.4,0.55,-1.1,-0.25,0.15,0.31,3845,45019
0,-0,-0.06,1.01,-1.46,0.55,-1.04,-0.25,0.16,0.31,3846,45029
0,-0.01,-0.06,1.02,-1.95,0.55,-1.16,-0.25,0.15,0.31,3847,45039
0,-0.01,-0.06,1.02,-2.87,0.37,-1.28,-0.25,0.16,0.32,3848,45049
0,-0.02,-0.06,1,-3.05,-0.18,-1.71,-0.25,0.15,0.31,3849,45059
0,-0,-0.06,1,-2.74,-0.06,-2.07,-0.25,0.16,0.31,3850,45069
0,0,-0.06,0.99,-2.2,-0.49,-1.95,-0.25,0.16,0.31,3851,45079
0,-0.01,-0.06,1,-2.01,-1.28,-1.95,-0.25,0.16,0.31,3852,45089
0,-0.01,-0.06,1,-2.2,-1.16,-2.68,-0.25,0.16,0.31,3853,45099
0,0,-0.06,0.99,-1.52,-0.91,-2.99,-0.25,0.16,0.31,3854,45109
0,0.02,-0.06,1.01,-1.28,0.06,-3.05,-0.25,0.15,0.31,3855,45119
0,0.02,-0.06,1,-1.28,0.49,-3.05,-0.25,0.15,0.31,3856,45129
0,0.03,-0.06,1,-1.04,0.55,-1.52,-0.25,0.15,0.31,3857,45139
0,0.02,-0.05,1.01,-1.71,0.18,-0.55,-0.25,0.15,0.31,3858,45149
0,0,-0.05,0.99,-1.95,-0.06,-0.37,-0.25,0.16,0.31,3859,45159
0,0.01,-0.05,0.98,-1.1,-0.06,-0.49,-0.25,0.15,0.31,3860,45169
0,0.01,-0.05,1,-0.37,-0.24,-0.18,-0.25,0.16,0.31,3861,45179
0,0,-0.05,1.02,-0.73,-0.37,-0.12,-0.25,0.16,0.31,3862,45189
0,0,-0.05,1.02,-1.4,0.49,-0.73,-0.25,0.15,0.31,3863,45199
0,-0,-0.05,1,-1.28,0.91,-1.28,-0.25,0.16,0.31,3864,45209
0,0.01,-0.06,0.99,-0.85,1.71,-1.89,-0.25,0.16,0.31,3865,45219
0,0.03,-0.06,0.99,-0.24,2.01,-1.52,-0.25,0.16,0.31,3866,45229
0,0.02,-0.06,0.99,0.12,1.34,-0.3,-0.25,0.15,0.31,3867,45239
0,0.01,-0.06,1,0.12,1.22,0.37,-0.25,0.15,0.31,3868,45249
0,-0,-0.05,1,0.12,0.18,0.18,-0.25,0.15,0.31,3869,45259
0,0,-0.05,1,0.06,-0.12,0,-0.25,0.16,0.31,3870,45269
0,-0.01,-0.05,1.01,0.55,0.18,-0.49,-0.25,0.16,0.31,3871,45279
0,0,-0.06,1.02,0.06,0.67,-1.34,-0.25,0.15,0.31,3872,45289
0,0.02,-0.06,1.02,-0.73,1.4,-1.4,-0.25,0.16,0.32,3873,45299
0,0.02,-0.06,1.01,-0.73,1.22,-0.43,-0.25,0.15,0.31,3874,45309
0,0.02,-0.06,1.01,-0.85,1.71,-0.3,-0.25,0.15,0.32,3875,45319
0,0.01,-0.06,1,-0.37,1.46,-0.24,-0.25,0.16,0.31,3876,45329
0,0.01,-0.06,1.02,-0.18,1.04,-0.06,-0.25,0.15,0.31,3877,45339
0,0.01,-0.06,1.02,-0.73,0.73,0.24,-0.25,0.15,0.31,3878,45349
0,-0.01,-0.06,1.01,-1.59,0.61,0,-0.25,0.15,0.31,3879,45359
0,-0,-0.06,0.99,-1.1,0.3,-0.49,-0.25,0.15,0.31,3880,45369
0,-0,-0.06,1,0.18,-0.06,-0.43,-0.25,0.15,0.31,3881,45379
0,0,-0.06,1.02,0.12,-0.18,-0.43,-0.25,0.16,0.31,3882,45389
0,0,-0.06,1.03,-0.3,-0.43,-0.37,-0.25,0.16,0.31,3883,45399
0,0.01,-0.06,1.03,-1.1,0.43,-0.18,-0.25,0.16,0.31,3884,45409
0,0,-0.05,1.02,-1.95,0.49,0.3,-0.25,0.15,0.31,3885,45419
0,-0.03,-0.05,1.01,-1.83,0.3,-0.06,-0.25,0.15,0.31,3886,45429
0,-0.02,-0.06,1.01,-2.26,0.43,-1.28,-0.25,0.15,0.31,3887,45439
0,0.01,-0.06,0.99,-2.01,0.37,-1.28,-0.25,0.15,0.31,3888,45449
0,0.01,-0.06,0.99,-1.22,-0.18,-0.43,-0.25,0.16,0.31,3889,45459
0,0.02,-0.06,0.99,-1.04,0.18,-0.24,-0.25,0.16,0.31,3890,45469
0,0.01,-0.06,0.99,-0.37,0,0.61,-0.25,0.15,0.31,3891,45479
0,0,-0.06,0.99,-0.24,0.49,0.98,-0.25,0.16,0.31,3892,45489
0,-0.02,-0.06,1,-0.12,0.43,0.61,-0.25,0.16,0.31,3893,45499
0,-0.01,-0.05,0.99,-0.3,0.37,-0.18,-0.25,0.15,0.31,3894,45509
0,-0.01,-0.05,0.99,0.24,-0.49,-0.37,-0.25,0.16,0.31,3895,45519
0,-0.01,-0.05,1,0.79,-0.85,-0.61,-0.25,0.16,0.31,3896,45529
0,-0.01,-0.05,1.01,0.79,-0.73,-1.16,-0.25,0.16,0.31,3897,45539
0,0,-0.06,1.02,-0.18,-0.55,-1.34,-0.25,0.15,0.31,3898,45549
0,0.02,-0.05,1,0,-0.55,-0.55,-0.25,0.15,0.31,3899,45559
0,0.02,-0.06,1.01,0.37,-0.24,-0.06,-0.25,0.16,0.31,3900,45569
0,0.03,-0.06,1,-0.37,0.06,0.79,-0.25,0.16,0.31,3901,45579
0,0.03,-0.06,0.98,0,0.98,1.83,-0.25,0.16,0.31,3902,45589
0,-0.01,-0.06,0.98,2.01,0.3,2.26,-0.25,0.16,0.31,3903,45599
0,-0.02,-0.06,1.01,2.44,0.55,1.1,-0.25,0.15,0.31,3904,45609
0,-0.02,-0.06,1.03,1.04,0.85,0,-0.25,0.15,0.31,3905,45619
0,0,-0.06,1,0.37,0.18,-0.24,-0.25,0.15,0.31,3906,45629
0,-0,-0.06,1.01,1.28,-0.12,0.12,-0.25,0.15,0.31,3907,45639
0,0.01,-0.06,1.03,0.3,-0.12,-0.12,-0.25,0.15,0.31,3908,45649
0,0.01,-0.05,1.02,-0.43,-0.61,0.67,-0.25,0.16,0.31,3909,45659
0,-0,-0.06,1.01,-0.91,-0.49,1.1,-0.25,0.15,0.31,3910,45669
0,-0.01,-0.06,0.98,0.24,0.18,0.85,-0.25,0.15,0.32,3911,45679
0,-0.02,-0.05,1,1.28,-0.67,0.49,-0.25,0.15,0.31,3912,45689
0,-0.02,-0.05,1.02,0.73,-0.3,-0.85,-0.25,0.16,0.31,3913,45699
0,0.01,-0.05,1,-0.12,-0.18,-1.59,-0.25,0.16,0.31,3914,45709
0,0.02,-0.05,0.99,1.22,-0.3,-0.67,-0.25,0.15,0.31,3915,45719
0,0.02,-0.05,1.01,1.77,-0.37,-0.06,-0.25,0.15,0.31,3916,45729
0,0.02,-0.06,1.02,0.91,-0.06,0.37,-0.25,0.15,0.31,3917,45739
0,0.03,-0.05,1,0.24,0.12,1.22,-0.25,0.15,0.31,3918,45749
0,0.01,-0.05,0.98,1.1,0.24,2.01,-0.25,0.15,0.31,3919,45759
0,-0.02,-0.05,0.99,2.5,-0.18,1.46,-0.25,0.15,0.31,3920,45769
0,-0.02,-0.04,1.01,2.74,-0.49,0.91,-0.25,0.15,0.31,3921,45779
0,-0.01,-0.04,1.02,2.13,-0.49,0.37,-0.25,0.15,0.31,3922,45789
0,-0.01,-0.04,1.01,1.65,-0.49,-0.24,-0.25,0.15,0.32,3923,45799
0,0,-0.04,1.02,1.22,-0.61,-0.79,-0.25,0.15,0.32,3924,45809
0,0.01,-0.04,1.02,0.61,-0.85,-0.67,-0.25,0.15,0.31,3925,45819
0,0,-0.05,1.02,-0.79,-0.79,-0.55,-0.25,0.15,0.31,3926,45829
0,0.01,-0.05,1,-1.59,-0.24,-0.67,-0.25,0.15,0.31,3927,45839
0,0.02,-0.05,0.97,-0.43,-0.12,-0.37,-0.25,0.15,0.31,3928,45849
0,0.02,-0.05,0.99,0.85,-0.37,0.37,-0.25,0.15,0.32,3929,45859
0,0.01,-0.05,1,0.73,0.12,0.67,-0.25,0.15,0.31,3930,45869
0,-0.01,-0.05,1,1.04,0.18,0.55,-0.25,0.15,0.31,3931,45879
0,-0.01,-0.04,1,1.59,0.37,-0.43,-0.25,0.15,0.31,3932,45889
0,0,-0.04,1.02,1.59,-0.06,-1.04,-0.25,0.15,0.31,3933,45899
0,0.01,-0.04,1.03,0.91,-0.37,-0.91,-0.25,0.15,0.31,3934,45909
0,-0,-0.04,1.02,0.06,-0.73,-0.73,-0.25,0.15,0.31,3935,45919
0,-0,-0.04,1.01,0.3,-0.67,-1.04,-0.25,0.15,0.32,3936,45929
0,0,-0.05,1.03,0.55,-0.91,-1.22,-0.25,0.15,0.31,3937,45939
0,0.02,-0.05,1.02,-0.79,-0.55,-0.91,-0.25,0.15,0.31,3938,45949
0,0.02,-0.05,1.01,-0.67,-0.67,-0.18,-0.26,0.15,0.31,3939,45959
0,0,-0.04,1.01,-0.3,-0.73,-0.06,-0.25,0.15,0.31,3940,45969
0,-0.01,-0.05,1.02,-0.73,-0.55,-0.61,-0.25,0.15,0.32,3941,45979
0,-0.02,-0.04,1.01,-0.91,-0.43,-2.07,-0.25,0.15,0.31,3942,45989
0,-0,-0.05,1.01,-1.16,-0.37,-2.8,-0.26,0.15,0.31,3943,45999
0,0.02,-0.05,1,-1.46,0.18,-2.62,-0.26,0.15,0.31,3944,46009
0,0.01,-0.05,0.99,-0.73,-0.79,-1.59,-0.26,0.15,0.31,3945,46019
0,-0,-0.05,1,-0.91,-1.1,-1.89,-0.26,0.15,0.31,3946,46029
0,-0.01,-0.04,1.01,-0.98,-1.59,-2.32,-0.26,0.15,0.31,3947,46039
0,-0,-0.05,1.02,-1.59,-1.71,-2.68,-0.25,0.15,0.31,3948,46049
0,0.01,-0.05,1.01,-1.89,-1.77,-2.93,-0.25,0.15,0.32,3949,46059
0,0.01,-0.05,1,-1.52,-1.46,-2.8,-0.26,0.15,0.31,3950,46069
0,0.03,-0.05,1,-1.1,-0.79,-2.32,-0.26,0.15,0.31,3951,46079
0,0.02,-0.05,1.01,-0.98,-0.55,-1.77,-0.26,0.15,0.31,3952,46089
0,0,-0.04,1.01,-1.71,-0.49,-1.95,-0.26,0.15,0.32,3953,46099
0,0,-0.04,1,-1.59,-0.3,-2.74,-0.26,0.15,0.31,3954,46109
0,0.02,-0.05,1,-1.22,-0.18,-2.8,-0.26,0.15,0.32,3955,46119
0,0.03,-0.05,1.01,-0.98,-0.3,-2.38,-0.26,0.15,0.31,3956,46129
0,0.02,-0.05,1,-0.98,-0.49,-1.77,-0.26,0.15,0.31,3957,46139
0,0.02,-0.05,1,-0.98,0.18,-1.46,-0.26,0.15,0.31,3958,46149
0,0.02,-0.05,1,-0.24,-0.43,-0.79,-0.26,0.15,0.31,3959,46159
0,0,-0.04,1.01,-0.55,-0.49,-1.04,-0.26,0.15,0.32,3960,46169
0,0.02,-0.04,1.02,-1.34,0.12,-1.71,-0.26,0.15,0.31,3961,46179
0,0.03,-0.04,1,-1.71,0.43,-1.1,-0.26,0.15,0.31,3962,46189
0,0.02,-0.05,1,-1.34,0.91,-0.49,-0.26,0.15,0.31,3963,46199
0,0.01,-0.05,1,-1.16,0.98,-0.91,-0.26,0.15,0.31,3964,46209
0,0.02,-0.04,0.99,-1.04,0.91,-0.67,-0.26,0.15,0.32,3965,46219
0,0.01,-0.05,0.99,-0.18,1.04,-0.55,-0.26,0.15,0.31,3966,46229
0,0.03,-0.05,1,0.24,0.91,-0.43,-0.26,0.15,0.31,3967,46239
0,0.04,-0.05,1.01,-0.12,1.46,0.3,-0.26,0.15,0.31,3968,46249
0,0.04,-0.05,0.99,-0.49,2.56,0.85,-0.26,0.15,0.31,3969,46259
0,0.03,-0.05,0.97,0.79,2.44,1.59,-0.26,0.15,0.31,3970,46269
0,0.01,-0.05,0.99,2.07,1.83,1.89,-0.26,0.15,0.31,3971,46279
0,0,-0.04,1,1.65,1.28,1.83,-0.26,0.15,0.31,3972,46289
0,-0,-0.04,0.99,1.89,1.28,1.59,-0.26,0.15,0.32,3973,46299
0,0,-0.04,1,2.38,1.95,0.98,-0.26,0.15,0.31,3974,46309
0,0.01,-0.04,1.02,1.71,2.74,1.04,-0.26,0.15,0.31,3975,46319
0,0.01,-0.04,1.01,0.61,3.41,0.91,-0.26,0.15,0.31,3976,46329
0,0.01,-0.04,0.99,0.85,3.54,1.4,-0.26,0.15,0.31,3977,46339
0,0.01,-0.04,0.99,1.16,3.05,1.95,-0.26,0.15,0.32,3978,46349
0,0,-0.04,1,1.4,2.68,1.77,-0.26,0.15,0.32,3979,46359
0,0,-0.04,1,0.79,2.32,1.71,-0.25,0.15,0.32,3980,46369
0,-0,-0.03,1,1.4,2.07,2.01,-0.26,0.15,0.32,3981,46379
0,-0.02,-0.04,1.02,0.98,1.71,1.28,-0.26,0.15,0.31,3982,46389
0,-0.01,-0.04,1.01,0.24,2.01,0.43,-0.26,0.15,0.32,3983,46399
0,0,-0.04,0.99,0.55,2.56,0.24,-0.25,0.15,0.32,3984,46409
0,-0,-0.04,1,1.59,2.44,0.49,-0.25,0.15,0.32,3985,46419
0,-0.01,-0.03,1.03,2.01,2.13,0.24,-0.25,0.15,0.32,3986,46429
0,0,-0.04,1.05,0.61,2.13,-0.12,-0.25,0.15,0.32,3987,46439
0,0.02,-0.04,1.03,-0.67,2.32,0.24,-0.25,0.15,0.31,3988,46449
0,0.01,-0.04,1.01,-0.79,2.26,0.61,-0.25,0.15,0.31,3989,46459
0,0.01,-0.04,1.01,-0.55,2.56,0.43,-0.25,0.15,0.32,3990,46469
0,0.01,-0.04,1.01,-0.49,2.44,0.49,-0.25,0.15,0.32,3991,46479
0,0.01,-0.05,1,-0.67,2.2,0.73,-0.25,0.15,0.32,3992,46489
0,0,-0.05,1,-0.37,1.95,0.61,-0.25,0.15,0.32,3993,46499
0,0.01,-0.05,1,-0.06,1.65,0.18,-0.25,0.15,0.31,3994,46509
0,0.03,-0.05,1.02,-0.12,1.52,0.43,-0.25,0.15,0.31,3995,46519
0,0.03,-0.05,1.02,-0.79,0.98,1.4,-0.25,0.15,0.32,3996,46529
0,0.03,-0.05,1.01,-1.28,1.52,2.56,-0.25,0.15,0.31,3997,46539
0,0.02,-0.05,0.99,-0.55,2.38,3.29,-0.25,0.15,0.32,3998,46549
0,0.01,-0.05,1.01,0.12,2.32,3.78,-0.25,0.15,0.31,3999,46559
0,0,-0.05,1.01,-0.12,3.29,3.66,-0.25,0.15,0.32,4000,46569
0,-0.02,-0.04,1.01,0.3,2.93,3.35,-0.25,0.15,0.31,4001,46579
0,-0.02,-0.04,1.02,0.3,2.74,2.44,-0.25,0.15,0.32,4002,46589
0,-0.01,-0.05,1.03,-0.85,2.87,1.4,-0.25,0.15,0.32,4003,46599
0,0.02,-0.05,1.01,-1.83,2.8,1.83,-0.25,0.15,0.32,4004,46609
0,0.01,-0.04,0.99,-0.67,2.68,3.35,-0.25,0.15,0.32,4005,46619
0,-0.03,-0.04,1.01,0.24,2.13,3.41,-0.25,0.15,0.31,4006,46629
0,-0.03,-0.04,1.02,-0.91,2.32,2.2,-0.25,0.15,0.31,4007,46639
0,-0.01,-0.04,1,-0.98,1.59,2.13,-0.25,0.15,0.32,4008,46649
0,-0.02,-0.04,1.01,-0.55,0.73,2.56,-0.25,0.15,0.32,4009,46659
0,-0.03,-0.04,1.02,-0.55,1.04,1.83,-0.25,0.15,0.32,4010,46669
0,-0.04,-0.04,1.01,-0.49,0.98,0.85,-0.25,0.15,0.32,4011,46679
0,-0.04,-0.04,1.01,-0.55,1.89,-0.43,-0.25,0.15,0.31,4012,46689
0,-0.02,-0.04,1,-0.37,2.38,-1.04,-0.25,0.15,0.31,4013,46699
0,-0,-0.05,1,0.18,1.65,-0.3,-0.25,0.15,0.31,4014,46709
0,-0,-0.05,1,-0.43,0.79,0.06,-0.25,0.15,0.32,4015,46719
0,-0.01,-0.04,0.99,-0.55,0,0.79,-0.25,0.15,0.32,4016,46729
0,-0.03,-0.04,1.01,0.24,-1.04,0.85,-0.25,0.15,0.31,4017,46739
0,-0.04,-0.04,1.02,-0.61,-0.85,-0.61,-0.25,0.15,0.32,4018,46749
0,-0,-0.04,1.01,-1.1,0.24,-1.28,-0.25,0.15,0.31,4019,46759
0,0.01,-0.05,1,-0.67,0.61,-0.79,-0.25,0.15,0.32,4020,46769
0,-0,-0.04,0.99,0.12,1.04,0.98,-0.25,0.15,0.32,4021,46779
0,-0.02,-0.04,1.01,0.61,0.79,0.85,-0.25,0.15,0.32,4022,46789
0,-0.02,-0.04,1.01,0,0.55,0,-0.25,0.15,0.32,4023,46799
0,-0,-0.04,1,-0.3,0.49,0.12,-0.25,0.15,0.32,4024,46809
0,-0.01,-0.04,1.01,0.06,0.49,-0.06,-0.25,0.15,0.32,4025,46819
0,0,-0.04,1.02,-0.79,1.1,-0.61,-0.25,0.15,0.32,4026,46829
0,0.02,-0.04,1,-0.79,1.22,0.24,-0.25,0.15,0.32,4027,46839
0,-0.01,-0.04,1.01,0.55,0.73,0.67,-0.25,0.15,0.32,4028,46849
0,-0.01,-0.04,1.04,-0.18,0.67,0.3,-0.25,0.15,0.32,4029,46859
0,0.01,-0.04,1.03,-1.77,0.85,0.43,-0.25,0.15,0.31,4030,46869
0,-0.01,-0.04,1.01,-1.65,0,1.16,-0.25,0.15,0.31,4031,46879
0,-0.03,-0.04,1.01,-1.22,0.18,0.49,-0.25,0.15,0.31,4032,46889
0,-0.03,-0.04,1,-1.22,0.3,-0.61,-0.25,0.15,0.32,4033,46899
0,-0.01,-0.04,1,-0.49,0.18,-0.49,-0.25,0.15,0.32,4034,46909
0,-0.01,-0.04,1,-0.24,0.49,-0.61,-0.25,0.15,0.32,4035,46919
0,-0,-0.04,1,0,0.37,-0.49,-0.25,0.15,0.32,4036,46929
0,0,-0.04,1.01,0.06,0,-0.37,-0.25,0.15,0.31,4037,46939
0,0,-0.04,1.01,-0.3,-0.55,0,-0.25,0.15,0.31,4038,46949
0,-0,-0.03,1.01,-0.67,0.12,0.49,-0.25,0.15,0.32,4039,46959
0,-0.01,-0.04,1,-0.37,0.12,0.24,-0.25,0.15,0.32,4040,46969
0,-0.01,-0.04,1.02,-0.67,0,0.24,-0.25,0.15,0.32,4041,46979
0,-0,-0.04,1.01,-1.65,0.3,0.24,-0.25,0.15,0.32,4042,46989
0,-0.02,-0.03,0.99,-1.77,-0.3,0.49,-0.25,0.15,0.31,4043,46999
0,-0.04,-0.03,1,-1.1,-0.43,-0.55,-0.25,0.15,0.31,4044,47009
0,-0.03,-0.04,1,-0.98,-0.37,-1.95,-0.25,0.15,0.32,4045,47019
0,0,-0.03,0.99,-1.04,-0.3,-1.59,-0.25,0.15,0.32,4046,47029
0,0,-0.04,1,-0.61,-0.49,-1.16,-0.25,0.15,0.32,4047,47039
0,0,-0.04,1,-1.1,-0.49,-0.98,-0.25,0.15,0.32,4048,47049
0,0.02,-0.04,0.99,-0.67,-0.43,-0.3,-0.25,0.15,0.31,4049,47059
0,0.01,-0.04,1,0,-0.61,0.43,-0.25,0.15,0.31,4050,47069
0,0,-0.04,1,-0.3,0.06,0.61,-0.25,0.15,0.32,4051,47079
0,0,-0.03,0.99,0.12,0.55,0.49,-0.25,0.15,0.32,4052,47089
0,-0,-0.03,1.01,0.43,0.49,0.91,-0.25,0.15,0.32,4053,47099
0,-0.01,-0.04,1.02,-0.67,1.16,0.43,-0.25,0.15,0.31,4054,47109
0,-0.02,-0.04,0.99,-0.61,0.98,-0.12,-0.25,0.15,0.31,4055,47119
0,-0.01,-0.04,1,0.24,0.91,-0.06,-0.25,0.15,0.32,4056,47129
0,-0.01,-0.04,1.01,0.24,0.61,-0.06,-0.25,0.15,0.31,4057,47139
0,-0.01,-0.04,1.02,-0.43,0.18,0.06,-0.25,0.15,0.32,4058,47149
0,-0.01,-0.04,1.01,-0.67,0.43,-0.24,-0.25,0.15,0.32,4059,47159
0,0.01,-0.04,1,-0.55,0.18,0.12,-0.25,0.15,0.32,4060,47169
0,0.01,-0.04,1.01,-0.37,0.73,0.79,-0.25,0.15,0.31,4061,47179
0,-0.01,-0.04,1,-0.3,1.28,0.85,-0.25,0.15,0.32,4062,47189
0,-0.01,-0.04,0.99,0.3,1.95,0.49,-0.25,0.15,0.31,4063,47199
0,-0,-0.04,1.01,1.46,0.98,0.49,-0.25,0.15,0.32,4064,47209
0,-0.01,-0.03,1.03,0.3,0,0.67,-0.25,0.15,0.32,4065,47219
0,0,-0.03,1.03,-0.24,0.06,0.49,-0.25,0.15,0.32,4066,47229
0,-0,-0.04,1.02,-0.24,0.18,0.73,-0.25,0.15,0.32,4067,47239
0,0,-0.04,1.04,-1.1,1.16,0.55,-0.25,0.15,0.31,4068,47249
0,0,-0.04,1.02,-1.83,1.52,0.61,-0.25,0.15,0.32,4069,47259
0,-0.01,-0.04,1.01,-1.83,0.79,1.22,-0.25,0.15,0.32,4070,47269
0,-0.02,-0.04,1,-1.65,0.37,0.85,-0.25,0.15,0.32,4071,47279
0,-0.01,-0.04,1.01,-1.16,-0.79,0.49,-0.25,0.15,0.32,4072,47289
0,-0,-0.04,1.02,-1.46,-0.73,0.24,-0.25,0.15,0.31,4073,47299
0,0.01,-0.04,1.02,-2.2,-0.24,0.3,-0.25,0.15,0.31,4074,47309
0,0.02,-0.05,1.01,-2.62,0.24,1.1,-0.25,0.15,0.32,4075,47319
0,0.01,-0.04,1,-2.13,0.79,2.26,-0.25,0.15,0.32,4076,47329
0,-0.02,-0.05,0.99,-1.59,1.04,1.89,-0.25,0.15,0.32,4077,47339
0,-0,-0.04,0.99,-0.91,1.22,1.83,-0.25,0.15,0.32,4078,47349
0,0,-0.04,1.01,-0.24,0.49,2.38,-0.25,0.15,0.32,4079,47359
0,-0.02,-0.04,1.01,-0.98,0,2.62,-0.25,0.15,0.31,4080,47369
0,-0.02,-0.04,1.01,-1.16,0.12,2.2,-0.25,0.15,0.31,4081,47379
0,-0.03,-0.04,1,-0.91,0.06,1.22,-0.25,0.15,0.32,4082,47389
0,-0.02,-0.04,1,-0.67,0,0.61,-0.25,0.15,0.32,4083,47399
0,-0.02,-0.04,1.01,-1.1,0.24,0.24,-0.25,0.15,0.32,4084,47409
0,-0.01,-0.04,1,-1.34,0.24,0.43,-0.25,0.15,0.32,4085,47419
0,0,-0.04,1,-0.55,0.43,0.67,-0.25,0.15,0.32,4086,47429
0,-0,-0.04,1.01,-0.18,0.24,1.1,-0.25,0.16,0.31,4087,47439
0,-0,-0.04,1.01,-0.55,-0.24,1.59,-0.25,0.15,0.32,4088,47449
0,-0.02,-0.04,1.01,-1.1,-0.67,1.34,-0.25,0.15,0.32,4089,47459
0,-0.02,-0.04,0.99,-1.77,-0.24,0.73,-0.25,0.15,0.32,4090,47469
0,-0.01,-0.04,0.98,-0.24,0.24,0.49,-0.25,0.15,0.31,4091,47479
0,-0.01,-0.04,1,0.37,0.73,0.67,-0.25,0.15,0.31,4092,47489
0,-0,-0.04,1.01,-0.12,0.79,0.73,-0.25,0.15,0.31,4093,47499
0,-0,-0.05,1.01,-0.73,0.67,0.91,-0.25,0.15,0.32,4094,47509
0,-0.01,-0.04,0.99,-0.67,0.43,1.22,-0.25,0.15,0.32,4095,47519
0,-0.02,-0.05,1,-0.18,0.3,0.73,-0.25,0.15,0.32,4096,47529
0,-0.02,-0.04,1,0.18,-0.12,0.24,-0.25,0.15,0.32,4097,47539
0,-0.01,-0.04,1.02,0.12,-0.18,-0.12,-0.25,0.15,0.32,4098,47549
0,0.01,-0.05,1.01,-0.43,0.24,0.12,-0.25,0.15,0.31,4099,47559
0,0.01,-0.04,0.99,0.06,0.18,1.59,-0.25,0.15,0.32,4100,47569
0,-0.02,-0.04,1.01,0.67,0.06,1.71,-0.25,0.15,0.32,4101,47579
0,-0.02,-0.04,1.02,-0.18,0.18,1.46,-0.25,0.15,0.32,4102,47589
0,-0.02,-0.04,1.02,-0.85,0.3,1.1,-0.25,0.15,0.32,4103,47599
0,-0.03,-0.04,1.01,-0.61,-0.12,0.79,-0.25,0.15,0.31,4104,47609
0,-0.02,-0.03,1.01,-0.12,-0.18,0.18,-0.25,0.15,0.31,4105,47619
0,-0.02,-0.04,1.02,-0.24,-0.37,-0.37,-0.25,0.15,0.31,4106,47629
0,-0.01,-0.04,1.02,-0.91,-0.61,-0.61,-0.25,0.15,0.32,4107,47639
0,-0.01,-0.04,1.01,-1.04,-0.67,-1.22,-0.25,0.15,0.32,4108,47649
0,0,-0.05,1.01,-1.16,-0.55,-1.46,-0.25,0.15,0.32,4109,47659
0,0.02,-0.04,1,-1.28,0.06,-0.49,-0.25,0.15,0.31,4110,47669
0,0.01,-0.05,1,-1.4,-0.3,0.55,-0.25,0.15,0.31,4111,47679
0,0,-0.04,0.99,-1.16,-0.18,0.67,-0.25,0.15,0.31,4112,47689
0,0,-0.04,1,-0.55,-0.24,0.73,-0.25,0.15,0.32,4113,47699
0,0,-0.04,1,-0.3,-0.61,0.91,-0.25,0.15,0.32,4114,47709
0,0,-0.04,1.02,-0.18,-0.67,0.91,-0.25,0.15,0.32,4115,47719
0,0,-0.04,1.02,-1.04,-0.18,0.55,-0.25,0.15,0.32,4116,47729
0,0.01,-0.03,1,-1.04,0.67,0.79,-0.25,0.15,0.31,4117,47739
0,-0,-0.04,1.01,-0.43,0.55,0.98,-0.25,0.15,0.31,4118,47749
0,-0.01,-0.04,1.01,-0.85,0.43,0.79,-0.25,0.15,0.32,4119,47759
0,-0.01,-0.03,1.02,-1.28,0.24,0.73,-0.25,0.15,0.32,4120,47769
0,-0.02,-0.04,1.01,-1.89,0.06,0.73,-0.25,0.15,0.32,4121,47779
0,-0.01,-0.04,0.99,-1.83,0.73,0,-0.25,0.15,0.32,4122,47789
0,-0,-0.04,0.99,-1.1,0.85,-0.12,-0.25,0.15,0.31,4123,47799
0,0.02,-0.05,1,-1.22,1.1,0.24,-0.25,0.15,0.31,4124,47809
0,0.02,-0.05,0.99,-1.65,1.1,1.16,-0.25,0.15,0.32,4125,47819
0,0,-0.05,0.98,-1.1,0.98,1.71,-0.25,0.15,0.32,4126,47829
0,-0,-0.05,1,-0.18,1.16,1.65,-0.25,0.15,0.32,4127,47839
0,-0.01,-0.04,1.01,-0.12,0.98,1.71,-0.25,0.15,0.32,4128,47849
0,-0.02,-0.04,1.02,-0.3,0.55,1.83,-0.25,0.15,0.31,4129,47859
0,-0.03,-0.04,1.02,-0.73,0.37,0.91,-0.25,0.15,0.31,4130,47869
0,-0.02,-0.04,1.01,-1.34,0.24,0.18,-0.25,0.15,0.32,4131,47879
0,-0.01,-0.04,1.01,-1.1,0.43,0.37,-0.25,0.15,0.32,4132,47889
0,-0.02,-0.04,1.02,-0.67,0.49,0.12,-0.25,0.15,0.32,4133,47899
0,-0.02,-0.04,1.02,-1.28,0.49,-0.06,-0.25,0.15,0.31,4134,47909
0,-0.02,-0.04,1.02,-1.89,0.55,-0.37,-0.25,0.15,0.32,4135,47919
0,-0.01,-0.04,1.01,-2.2,0.12,-0.61,-0.25,0.15,0.31,4136,47929
0,-0,-0.04,1.01,-2.44,-0.12,-0.18,-0.25,0.15,0.32,4137,47939
0,-0,-0.04,1,-2.5,-0.24,-0.18,-0.25,0.15,0.32,4138,47949
0,-0,-0.04,1,-2.01,-0.55,-0.18,-0.25,0.15,0.32,4139,47959
0,0,-0.04,1,-1.83,0.43,-0.18,-0.25,0.15,0.32,4140,47969
0,-0,-0.05,0.99,-1.22,0.67,0.12,-0.25,0.15,0.31,4141,47979
0,0,-0.04,1,-0.43,1.34,0.06,-0.25,0.16,0.31,4142,47989
0,0,-0.05,1,-0.67,0.98,0.12,-0.25,0.15,0.32,4143,47999
0,0,-0.04,0.99,-0.67,0.67,0.61,-0.25,0.15,0.32,4144,48009
0,-0.01,-0.05,1,-0.79,0.24,0.67,-0.25,0.15,0.32,4145,48019
0,0,-0.05,1,-1.22,0.49,0.3,-0.25,0.15,0.32,4146,48029
0,0.02,-0.04,0.99,-0.73,0.67,1.16,-0.25,0.15,0.31,4147,48039
0,-0.01,-0.04,1,-0.06,0.49,1.95,-0.25,0.15,0.32,4148,48049
0,-0.01,-0.04,1.01,-0.55,1.4,1.34,-0.25,0.15,0.31,4149,48059
0,-0.02,-0.04,1,-0.24,1.4,1.04,-0.25,0.15,0.32,4150,48069
0,-0.03,-0.04,1.02,-0.3,1.16,0.3,-0.25,0.15,0.32,4151,48079
0,-0.01,-0.04,1.02,-1.28,1.28,-0.49,-0.25,0.15,0.32,4152,48089
0,-0.01,-0.04,1.01,-1.28,0.85,-0.18,-0.25,0.15,0.31,4153,48099
0,-0.01,-0.04,1,-1.28,1.46,-0.18,-0.25,0.16,0.31,4154,48109
0,-0.01,-0.05,1,-0.73,1.1,-0.06,-0.25,0.15,0.31,4155,48119
0,-0.01,-0.05,1,-0.55,0.85,0.3,-0.25,0.15,0.32,4156,48129
0,-0.01,-0.05,1.01,-0.73,1.1,0.18,-0.25,0.15,0.32,4157,48139
0,-0.01,-0.05,1,-0.98,0.91,0.37,-0.25,0.15,0.32,4158,48149
0,-0,-0.04,0.99,-0.61,0.79,0.73,-0.24,0.15,0.32,4159,48159
0,-0.02,-0.05,1,0.43,0.37,0.55,-0.25,0.15,0.31,4160,48169
0,-0.02,-0.04,1.02,-0.18,0.37,0.06,-0.25,0.15,0.31,4161,48179
0,-0.02,-0.04,1.01,-0.73,0.55,-0.37,-0.25,0.15,0.32,4162,48189
0,-0.02,-0.04,1.01,-0.3,0.43,-0.24,-0.25,0.15,0.31,4163,48199
0,-0.02,-0.04,1.02,-0.37,1.4,-0.91,-0.25,0.15,0.32,4164,48209
0,-0.01,-0.05,1.01,-0.91,1.34,-1.34,-0.25,0.15,0.31,4165,48219
0,0,-0.04,1,-0.98,0.91,-0.73,-0.25,0.15,0.31,4166,48229
0,-0.02,-0.05,1,-0.85,0.12,-0.55,-0.25,0.15,0.31,4167,48239
0,-0.01,-0.04,1,-0.73,-0.43,-0.43,-0.25,0.15,0.31,4168,48249
0,-0.01,-0.04,1.01,-0.61,-0.37,-0.18,-0.25,0.15,0.32,4169,48259
0,-0.01,-0.04,1,-0.67,0.18,-0.24,-0.25,0.15,0.32,4170,48269
0,-0.01,-0.04,1.01,-0.49,0.98,-0.3,-0.25,0.15,0.31,4171,48279
0,-0.02,-0.04,1.01,-0.67,0.98,-0.98,-0.25,0.15,0.31,4172,48289
0,-0.02,-0.05,1.01,-1.1,1.1,-1.89,-0.25,0.15,0.32,4173,48299
0,0.01,-0.05,1,-0.85,0.79,-2.01,-0.25,0.15,0.32,4174,48309
0,0.01,-0.05,1,-0.06,0.12,-1.22,-0.25,0.15,0.32,4175,48319
0,0.01,-0.05,1.03,-0.79,0.55,-0.79,-0.25,0.15,0.32,4176,48329
0,0.01,-0.04,1,-1.71,1.16,-0.06,-0.24,0.15,0.32,4177,48339
0,-0.01,-0.04,1,-0.43,0.73,1.1,-0.25,0.15,0.31,4178,48349
0,-0.03,-0.04,1.02,-1.1,1.52,0.12,-0.25,0.16,0.32,4179,48359
0,-0,-0.04,1,-1.46,1.16,-0.49,-0.25,0.15,0.31,4180,48369
0,-0,-0.04,1,-0.98,0.49,-0.12,-0.25,0.15,0.32,4181,48379
0,-0.01,-0.04,1,-0.3,-0.06,-0.12,-0.25,0.15,0.32,4182,48389
0,-0.01,-0.04,1.02,-0.12,0.49,-0.49,-0.25,0.15,0.31,4183,48399
0,0,-0.04,1.02,-0.55,1.1,-0.37,-0.25,0.15,0.31,4184,48409
0,0,-0.04,1.01,-0.61,1.28,0.61,-0.25,0.15,0.31,4185,48419
0,-0.02,-0.05,1.01,-1.04,1.16,0.73,-0.25,0.16,0.31,4186,48429
0,-0.02,-0.04,0.99,-0.98,0.91,0.43,-0.25,0.15,0.32,4187,48439
0,-0.02,-0.04,0.98,0,0.49,0.24,-0.25,0.15,0.32,4188,48449
0,-0.03,-0.04,1.02,0.06,0.37,-0.43,-0.25,0.15,0.32,4189,48459
0,-0,-0.05,1.01,-1.4,0.79,-1.28,-0.25,0.15,0.31,4190,48469
0,0.02,-0.04,0.99,-0.79,0.98,0,-0.25,0.15,0.31,4191,48479
0,-0.01,-0.04,1,0.43,0.91,0.61,-0.25,0.15,0.31,4192,48489
0,-0.01,-0.04,1.02,0.24,1.22,0.24,-0.25,0.15,0.32,4193,48499
0,-0.01,-0.04,1.01,-0.3,0.98,0.43,-0.25,0.15,0.32,4194,48509
0,-0.03,-0.04,1.01,-0.49,0.67,0.49,-0.25,0.15,0.31,4195,48519
0,-0.03,-0.04,1.01,-0.55,0.79,-0.3,-0.25,0.15,0.32,4196,48529
0,-0.01,-0.04,1.01,-0.06,0.61,-0.37,-0.25,0.15,0.31,4197,48539
0,-0.02,-0.04,1.02,-0.55,0.49,-0.37,-0.25,0.15,0.31,4198,48549
0,-0.02,-0.04,1.01,-0.61,0.79,-0.91,-0.25,0.15,0.32,4199,48559
0,-0.01,-0.04,1.01,-0.49,0.61,-1.1,-0.25,0.15,0.32,4200,48569
0,0,-0.04,1.01,-0.61,0.3,-0.85,-0.25,0.15,0.32,4201,48579
0,-0.01,-0.04,1.01,-0.18,-0.12,-0.06,-0.25,0.15,0.31,4202,48589
0,-0.02,-0.04,1.03,-0.98,-0.06,-0.24,-0.25,0.15,0.31,4203,48599
0,-0.01,-0.04,1.02,-1.95,0.37,-0.73,-0.25,0.16,0.31,4204,48609
0,-0.01,-0.04,0.99,-1.71,0.91,-0.49,-0.25,0.15,0.32,4205,48619
0,-0.01,-0.05,1,-0.85,1.16,-0.61,-0.25,0.15,0.32,4206,48629
0,-0.01,-0.05,1,-0.98,0.55,-0.73,-0.25,0.15,0.32,4207,48639
0,0,-0.04,1,-0.85,0.37,-0.12,-0.25,0.15,0.31,4208,48649
0,-0.01,-0.04,1,-0.37,-0.24,0.49,-0.25,0.15,0.31,4209,48659
0,-0.01,-0.04,1.01,0.06,-0.49,0.37,-0.25,0.15,0.31,4210,48669
0,-0.01,-0.03,1.03,-0.18,-0.67,0.24,-0.25,0.15,0.32,4211,48679
0,-0.01,-0.03,1.04,-1.52,0.18,0,-0.25,0.15,0.31,4212,48689
0,-0,-0.04,1.03,-2.93,1.16,-0.24,-0.25,0.15,0.32,4213,48699
0,0.01,-0.04,0.99,-2.38,1.52,-0.24,-0.25,0.15,0.31,4214,48709
0,0.02,-0.04,0.99,-1.22,2.01,0.91,-0.25,0.16,0.31,4215,48719
0,-0.01,-0.05,1,-0.73,1.1,1.89,-0.25,0.15,0.31,4216,48729
0,-0.03,-0.04,1,-1.71,0.55,1.59,-0.25,0.15,0.31,4217,48739
0,-0.03,-0.04,0.99,-1.28,0.79,0.73,-0.25,0.15,0.32,4218,48749
0,-0.03,-0.05,0.99,-0.49,0.43,0.06,-0.25,0.15,0.31,4219,48759
0,-0.01,-0.05,1,-0.24,1.28,-0.43,-0.25,0.15,0.31,4220,48769
0,-0.01,-0.05,0.99,-0.12,1.28,-0.3,-0.25,0.15,0.31,4221,48779
0,-0.01,-0.05,0.99,0.37,1.1,-0.06,-0.25,0.15,0.31,4222,48789
0,-0.01,-0.05,1,0.91,0.61,0.12,-0.25,0.16,0.31,4223,48799
0,-0.02,-0.04,1.01,1.34,-0.3,0.49,-0.25,0.15,0.32,4224,48809
0,-0.03,-0.04,1.04,0.61,-0.18,0.49,-0.25,0.15,0.32,4225,48819
0,-0.02,-0.04,1.04,-0.73,0,0.24,-0.25,0.15,0.31,4226,48829
0,-0.03,-0.04,1.02,-1.4,0,0.24,-0.25,0.15,0.31,4227,48839
0,-0.04,-0.04,1.02,-1.22,0.67,-0.3,-0.25,0.15,0.31,4228,48849
0,-0.03,-0.04,1.01,-0.91,0.67,-0.85,-0.25,0.16,0.31,4229,48859
0,-0.03,-0.04,1.01,-0.91,0.73,-1.34,-0.25,0.15,0.32,4230,48869
0,-0.01,-0.04,1.01,-0.3,0,-1.16,-0.25,0.15,0.32,4231,48879
0,-0.02,-0.04,1.02,-0.55,-0.49,-0.91,-0.25,0.15,0.32,4232,48889
0,-0.02,-0.04,1.01,-0.85,-0.3,-1.46,-0.25,0.15,0.31,4233,48899
0,-0.02,-0.04,1.02,-1.1,-0.61,-1.59,-0.25,0.16,0.31,4234,48909
0,-0.01,-0.04,1.02,-1.83,-0.79,-1.65,-0.25,0.16,0.31,4235,48919
0,-0.02,-0.05,1.01,-2.93,-1.04,-1.83,-0.25,0.15,0.32,4236,48929
0,-0,-0.04,0.98,-2.5,-1.4,-1.83,-0.25,0.15,0.32,4237,48939
0,-0.01,-0.05,0.99,-0.79,-1.71,-1.59,-0.25,0.15,0.32,4238,48949
0,0,-0.04,1,-0.98,-1.4,-1.34,-0.25,0.16,0.31,4239,48959
0,0,-0.04,1.01,-0.85,-1.16,-0.43,-0.25,0.15,0.31,4240,48969
0,-0.01,-0.04,1.01,-0.73,-0.79,-0.49,-0.25,0.16,0.31,4241,48979
0,-0.01,-0.04,1.02,-1.1,-0.37,-0.73,-0.25,0.15,0.31,4242,48989
0,0,-0.04,1.02,-1.83,-0.06,-0.79,-0.25,0.15,0.31,4243,48999
0,0,-0.04,1,-1.4,-0.37,-0.37,-0.25,0.15,0.32,4244,49009
0,0.01,-0.04,1.02,-1.4,-0.37,0.24,-0.25,0.15,0.31,4245,49019
0,-0.01,-0.04,1,-1.4,-0.12,0.55,-0.25,0.16,0.31,4246,49029
0,-0.02,-0.04,1.01,-1.22,0.06,0.12,-0.25,0.16,0.31,4247,49039
0,-0.01,-0.04,1.02,-1.46,-0.12,-0.18,-0.25,0.15,0.31,4248,49049
0,-0.01,-0.04,1.01,-2.44,-0.67,-0.12,-0.25,0.15,0.31,4249,49059
0,-0.01,-0.04,1,-2.44,-0.79,-0.12,-0.25,0.15,0.32,4250,49069
0,-0.01,-0.04,1,-1.95,-0.61,-0.73,-0.25,0.15,0.31,4251,49079
0,0,-0.04,1,-1.65,-0.24,-0.67,-0.25,0.15,0.31,4252,49089
0,0.01,-0.04,1,-1.22,0.06,-0.12,-0.25,0.15,0.31,4253,49099
0,0.01,-0.05,1,-1.46,0.37,0.37,-0.25,0.15,0.31,4254,49109
0,0,-0.05,0.99,-1.28,0.79,0.79,-0.25,0.15,0.31,4255,49119
0,-0.01,-0.05,0.98,-0.85,0.43,1.04,-0.25,0.15,0.32,4256,49129
0,-0.02,-0.05,0.99,-0.12,0.24,1.16,-0.25,0.15,0.31,4257,49139
0,-0.02,-0.05,0.99,0,0.37,0.55,-0.25,0.15,0.31,4258,49149
0,-0.01,-0.05,0.99,0.06,0.37,0.61,-0.25,0.16,0.31,4259,49159
0,-0.01,-0.05,1,0.67,0.43,0.85,-0.25,0.16,0.31,4260,49169
0,-0.01,-0.05,1.01,-0.24,0.24,0.98,-0.25,0.15,0.32,4261,49179
0,-0.02,-0.05,1,-0.06,0.18,1.34,-0.25,0.15,0.32,4262,49189
0,-0.03,-0.05,1,0.24,-0.12,1.34,-0.25,0.15,0.32,4263,49199
0,-0.04,-0.04,1.01,0.73,-0.55,1.4,-0.25,0.16,0.31,4264,49209
0,-0.06,-0.04,1.04,0.06,-0.73,0.3,-0.25,0.15,0.31,4265,49219
0,-0.05,-0.04,1.03,-1.16,-1.16,-0.98,-0.25,0.15,0.31,4266,49229
0,-0.04,-0.04,1.02,-1.34,-0.3,-2.13,-0.25,0.15,0.32,4267,49239
0,-0.03,-0.05,1.01,-1.52,-0.12,-2.87,-0.25,0.15,0.31,4268,49249
0,-0.01,-0.05,1.01,-1.65,0,-3.11,-0.25,0.15,0.31,4269,49259
0,-0,-0.05,0.99,-1.65,-0.3,-2.93,-0.25,0.15,0.31,4270,49269
0,0,-0.05,0.98,-0.67,-1.16,-2.44,-0.25,0.16,0.31,4271,49279
0,0.01,-0.05,1.01,0,-1.59,-1.65,-0.25,0.16,0.31,4272,49289
0,0,-0.05,1.02,-1.16,-1.59,-1.28,-0.25,0.15,0.31,4273,49299
0,0,-0.04,1.01,-1.4,-1.77,-1.1,-0.25,0.15,0.31,4274,49309
0,0,-0.05,1.01,-1.46,-1.34,-1.71,-0.25,0.15,0.32,4275,49319
0,0.03,-0.04,1,-1.52,-1.1,-1.22,-0.25,0.15,0.31,4276,49329
0,0.02,-0.05,1,-0.73,-0.85,-0.43,-0.25,0.16,0.31,4277,49339
0,0.02,-0.05,1.01,-0.43,-0.49,-0.18,-0.25,0.16,0.31,4278,49349
0,0.03,-0.04,1.02,-0.67,-0.18,0.37,-0.25,0.15,0.32,4279,49359
0,0.02,-0.04,1.02,-1.04,0.12,1.22,-0.25,0.15,0.32,4280,49369
0,-0,-0.04,1.02,-1.52,0.18,1.52,-0.25,0.15,0.31,4281,49379
0,-0.02,-0.04,1.01,-1.89,0.24,0.79,-0.25,0.15,0.31,4282,49389
0,-0.02,-0.04,0.99,-1.83,-0.49,0.43,-0.25,0.15,0.31,4283,49399
0,-0.01,-0.05,0.99,-1.28,-0.43,-0.06,-0.25,0.16,0.31,4284,49409
0,-0.01,-0.05,0.98,-0.61,-0.79,-0.18,-0.25,0.15,0.32,4285,49419
0,-0,-0.05,1.01,-0.49,-0.67,-0.12,-0.25,0.15,0.32,4286,49429
0,0,-0.05,0.99,-0.73,-0.61,0.43,-0.25,0.15,0.32,4287,49439
0,-0.01,-0.05,1,-0.37,-0.49,1.04,-0.25,0.15,0.31,4288,49449
0,-0.02,-0.05,1,-0.3,-0.3,0.43,-0.25,0.15,0.31,4289,49459
0,-0.01,-0.04,1,-0.12,-0.43,0.18,-0.25,0.16,0.31,4290,49469
0,-0.02,-0.05,1.01,-0.24,-0.43,-0.12,-0.25,0.15,0.32,4291,49479
0,-0.02,-0.05,1.01,-0.61,-0.18,-0.85,-0.25,0.15,0.32,4292,49489
0,0,-0.05,1.01,-0.43,-0.43,-0.61,-0.25,0.15,0.31,4293,49499
0,-0.01,-0.05,1.02,-0.37,-0.55,-0.12,-0.25,0.15,0.31,4294,49509
0,-0.02,-0.05,1,-1.16,0.12,-0.43,-0.25,0.15,0.31,4295,49519
0,-0.02,-0.05,1,-0.73,-0.37,-0.49,-0.25,0.16,0.31,4296,49529
0,-0.01,-0.05,1,-1.1,0.43,-1.04,-0.25,0.15,0.31,4297,49539
0,-0.01,-0.05,1,-0.73,-0.43,-0.79,-0.25,0.15,0.32,4298,49549
0,-0.01,-0.05,1.01,-0.55,-1.04,-0.67,-0.25,0.15,0.31,4299,49559
0,-0,-0.05,1.01,-0.91,-1.1,-0.85,-0.25,0.15,0.31,4300,49569
0,0,-0.04,1,-1.04,-0.73,-0.37,-0.25,0.15,0.31,4301,49579
0,-0.01,-0.04,1,-0.61,-0.67,-0.18,-0.25,0.16,0.31,4302,49589
0,-0.03,-0.04,1.01,-0.91,-0.49,-0.67,-0.25,0.15,0.31,4303,49599
0,-0.01,-0.04,1.01,-1.28,-0.12,-1.4,-0.25,0.15,0.31,4304,49609
0,-0.01,-0.04,0.99,-1.46,-0.18,-1.34,-0.25,0.15,0.31,4305,49619
0,0,-0.05,0.98,-0.61,-0.18,-1.34,-0.25,0.15,0.31,4306,49629
0,0,-0.05,0.99,-0.06,-0.24,-1.65,-0.25,0.16,0.31,4307,49639
0,0.02,-0.05,0.99,0.18,0.06,-1.16,-0.25,0.15,0.31,4308,49649
0,0.02,-0.05,0.99,0.55,0.3,-0.24,-0.25,0.15,0.31,4309,49659
0,0.01,-0.05,0.99,1.46,-0.3,0.49,-0.25,0.15,0.31,4310,49669
0,0,-0.04,1.01,1.77,-0.55,0.91,-0.25,0.15,0.32,4311,49679
0,-0.02,-0.04,1.03,0.91,-0.98,0.61,-0.25,0.15,0.31,4312,49689
0,-0.01,-0.03,1.03,-0.49,-0.49,-0.06,-0.25,0.15,0.31,4313,49699
0,-0,-0.04,1.02,-0.49,0.73,-0.67,-0.25,0.15,0.31,4314,49709
0,0.01,-0.04,1.01,-0.85,1.52,-0.49,-0.25,0.16,0.31,4315,49719
0,0.02,-0.05,1,-1.22,2.38,-0.18,-0.25,0.15,0.32,4316,49729
0,-0,-0.05,0.97,-0.24,2.13,0,-0.25,0.15,0.32,4317,49739
0,0.01,-0.05,0.98,0.85,1.52,0,-0.25,0.15,0.31,4318,49749
0,0,-0.05,1,1.34,0.43,0.55,-0.25,0.15,0.31,4319,49759
0,0.01,-0.05,1.01,0.73,-0.18,1.1,-0.25,0.16,0.31,4320,49769
0,0.01,-0.04,1.01,0.79,0.24,1.34,-0.25,0.16,0.31,4321,49779
0,-0.01,-0.04,1.01,1.4,0.37,1.59,-0.25,0.15,0.31,4322,49789
0,-0.02,-0.04,1.04,1.22,0.79,0.91,-0.25,0.15,0.31,4323,49799
0,-0.01,-0.04,1.04,0.12,1.1,0.18,-0.25,0.15,0.32,4324,49809
0,0.01,-0.04,1.02,-0.24,1.4,0.49,-0.25,0.15,0.31,4325,49819
0,0.01,-0.04,1.02,0.12,1.28,1.22,-0.25,0.15,0.31,4326,49829
0,-0.01,-0.04,1.02,-0.37,1.34,1.28,-0.25,0.15,0.31,4327,49839
0,-0,-0.04,1.02,-0.79,1.95,1.16,-0.25,0.15,0.32,4328,49849
0,-0.01,-0.04,1,-1.04,1.71,1.1,-0.25,0.15,0.31,4329,49859
0,-0,-0.04,1,-1.4,1.65,1.04,-0.25,0.15,0.32,4330,49869
0,-0.02,-0.05,0.98,-0.79,1.04,1.1,-0.25,0.15,0.31,4331,49879
0,-0.02,-0.05,0.98,-0.12,0.79,0.37,-0.25,0.16,0.31,4332,49889
0,-0,-0.04,0.99,0.55,0.73,-0.12,-0.25,0.15,0.31,4333,49899
0,-0,-0.05,1,0.43,0.85,0.18,-0.25,0.15,0.32,4334,49909
0,0.01,-0.05,0.99,0.61,1.04,0.91,-0.25,0.15,0.31,4335,49919
0,-0.01,-0.05,1.01,1.52,0.61,1.4,-0.25,0.15,0.32,4336,49929
0,-0.01,-0.04,1.02,0.73,0.98,0.98,-0.25,0.15,0.32,4337,49939
0,-0,-0.04,1.02,0.61,0.61,1.22,-0.25,0.15,0.31,4338,49949
0,-0.02,-0.04,1.03,-0.18,0.37,1.22,-0.25,0.15,0.32,4339,49959
0,-0.02,-0.03,1.03,-0.79,0.3,0.55,-0.25,0.15,0.31,4340,49969
0,-0.02,-0.03,1.02,-0.49,0.12,0.24,-0.25,0.15,0.32,4341,49979
0,-0.01,-0.03,1.03,-0.98,0.67,-0.18,-0.25,0.15,0.32,4342,49989
0,-0.01,-0.04,1.02,-1.65,1.34,-0.79,-0.25,0.15,0.32,4343,49999
0,-0.01,-0.04,1,-1.22,1.59,-0.67,-0.25,0.15,0.31,4344,50009
0,0,-0.05,1,-0.79,1.89,-0.98,-0.25,0.15,0.31,4345,50019
0,0.01,-0.05,1,-0.55,0.91,-0.3,-0.25,0.15,0.31,4346,50029
0,0.01,-0.05,1.01,-0.73,0.91,0.55,-0.25,0.15,0.32,4347,50039
0,0,-0.05,1,-0.98,0.98,0.91,-0.25,0.15,0.31,4348,50049
0,0,-0.04,1,-0.91,1.16,1.46,-0.25,0.15,0.32,4349,50059
0,-0.02,-0.04,1,-0.18,1.22,1.59,-0.25,0.15,0.32,4350,50069
0,-0.04,-0.04,1.01,-0.24,0.91,0.49,-0.25,0.15,0.31,4351,50079
0,-0.03,-0.03,1.01,-0.18,0,-0.43,-0.25,0.15,0.31,4352,50089
0,-0.01,-0.04,1.02,-0.3,0.18,-1.22,-0.25,0.15,0.32,4353,50099
0,0.01,-0.04,1.02,-0.73,0.06,-1.28,-0.25,0.15,0.32,4354,50109
0,0.02,-0.04,1.01,-0.67,0.98,-0.3,-0.25,0.15,0.32,4355,50119
0,0.01,-0.05,1,-0.55,2.32,0.3,-0.25,0.15,0.32,4356,50129
0,0,-0.04,0.98,0.43,2.44,1.46,-0.25,0.15,0.31,4357,50139
0,-0.03,-0.04,1.01,0.73,1.89,1.34,-0.25,0.15,0.31,4358,50149
0,-0.03,-0.04,1.01,-0.06,0.49,0.61,-0.25,0.15,0.31,4359,50159
0,-0.01,-0.04,1.02,-1.04,0.06,-0.18,-0.25,0.15,0.32,4360,50169
0,0,-0.04,1,-1.04,-0.24,-0.06,-0.25,0.15,0.31,4361,50179
0,-0.01,-0.04,1.02,-0.73,0.18,0.24,-0.25,0.15,0.32,4362,50189
0,-0.01,-0.04,1.02,-1.46,1.59,-0.55,-0.25,0.15,0.31,4363,50199
0,0,-0.04,1.01,-1.71,1.83,-0.43,-0.25,0.15,0.31,4364,50209
0,0,-0.05,0.99,-1.22,2.2,-0.06,-0.25,0.15,0.32,4365,50219
0,0.01,-0.05,1,-0.43,1.89,0.67,-0.25,0.15,0.32,4366,50229
0,0.01,-0.04,1.01,-0.61,1.77,1.65,-0.25,0.15,0.32,4367,50239
0,-0.01,-0.04,1,-0.91,1.22,2.01,-0.25,0.15,0.31,4368,50249
0,-0.03,-0.04,0.99,-0.73,0.98,1.59,-0.25,0.15,0.31,4369,50259
0,-0.03,-0.04,0.99,0.18,0.67,0.49,-0.25,0.15,0.31,4370,50269
0,-0.02,-0.04,1,0.91,0.43,-0.24,-0.25,0.15,0.31,4371,50279
0,-0.01,-0.04,1.03,0.61,0.18,-0.49,-0.25,0.15,0.32,4372,50289
0,-0.01,-0.05,1.02,-0.79,0.37,-0.55,-0.25,0.15,0.32,4373,50299
0,0.01,-0.04,1.01,-0.98,0.73,0.73,-0.25,0.15,0.32,4374,50309
0,-0.01,-0.04,1.01,-0.85,1.52,1.28,-0.25,0.15,0.31,4375,50319
0,-0.03,-0.04,1.01,-1.16,1.22,1.4,-0.25,0.15,0.31,4376,50329
0,-0.05,-0.04,1.01,-1.52,1.04,0.49,-0.25,0.15,0.31,4377,50339
0,-0.05,-0.05,0.99,-1.59,0.55,-0.55,-0.25,0.15,0.32,4378,50349
0,-0.02,-0.05,0.97,-0.67,0.61,-0.91,-0.25,0.15,0.32,4379,50359
0,-0.02,-0.05,0.98,0.98,0.37,-0.85,-0.25,0.15,0.31,4380,50369
0,-0.03,-0.04,1,1.4,0.43,-0.67,-0.25,0.15,0.31,4381,50379
0,-0.04,-0.04,1.02,1.22,1.89,-1.59,-0.25,0.15,0.31,4382,50389
0,0.01,-0.05,1.01,0.06,3.35,-2.01,-0.25,0.15,0.32,4383,50399
0,-0.03,-0.03,1,1.22,3.6,-0.24,-0.25,0.15,0.32,4384,50409
0,-0.05,-0.04,1.04,0.24,2.13,-1.71,-0.25,0.15,0.32,4385,50419
0,-0.02,-0.04,1.01,-1.52,1.22,-2.38,-0.25,0.15,0.32,4386,50429
0,-0.02,-0.04,1,-0.61,0.24,-1.71,-0.25,0.15,0.31,4387,50439
0,-0.04,-0.04,1.01,-1.1,-0.12,-2.07,-0.25,0.15,0.31,4388,50449
0,-0.02,-0.04,1,-0.91,-0.12,-3.05,-0.25,0.15,0.31,4389,50459
0,-0,-0.04,1.01,-0.85,-0.43,-2.99,-0.25,0.15,0.32,4390,50469
0,0,-0.04,1.01,-1.22,-0.43,-2.5,-0.25,0.15,0.32,4391,50479
0,0.01,-0.04,1,-0.98,-0.37,-2.2,-0.25,0.15,0.32,4392,50489
0,0.01,-0.04,1,-0.55,-0.37,-1.4,-0.25,0.15,0.31,4393,50499
0,0.01,-0.04,1.01,-0.24,0,-0.85,-0.25,0.15,0.31,4394,50509
0,0,-0.04,1.01,-0.79,-0.24,-0.79,-0.25,0.15,0.31,4395,50519
0,0.01,-0.04,1.01,-0.98,-0.12,-0.55,-0.25,0.15,0.32,4396,50529
0,0,-0.04,1,-0.61,-0.24,-0.24,-0.25,0.15,0.32,4397,50539
0,-0,-0.04,1,-0.24,-0.3,-0.12,-0.25,0.15,0.32,4398,50549
0,-0,-0.03,1.01,0,-0.49,-0.18,-0.25,0.15,0.32,4399,50559
0,-0,-0.04,1.02,-0.79,-0.43,-0.43,-0.25,0.15,0.31,4400,50569
0,0.02,-0.04,1.01,-1.34,0.73,-0.61,-0.25,0.15,0.31,4401,50579
0,0.02,-0.04,0.99,-1.04,1.28,0.18,-0.25,0.15,0.32,4402,50589
0,0.02,-0.04,0.99,-0.3,1.52,1.04,-0.25,0.15,0.32,4403,50599
0,-0.01,-0.04,1,0.3,0.67,1.34,-0.25,0.15,0.32,4404,50609
0,-0.01,-0.03,1,-0.24,-0.12,1.22,-0.25,0.15,0.32,4405,50619
0,-0.02,-0.03,1.01,0,-0.3,1.4,-0.25,0.15,0.31,4406,50629
0,-0.01,-0.04,1.02,-0.37,0.61,0.61,-0.25,0.15,0.31,4407,50639
0,0,-0.04,1.02,-1.34,0.98,0.67,-0.25,0.15,0.32,4408,50649
0,0.01,-0.04,1.01,-1.52,1.59,1.28,-0.25,0.15,0.32,4409,50659
0,-0.02,-0.04,1,-1.04,1.34,1.1,-0.25,0.15,0.32,4410,50669
0,-0.01,-0.05,1,-0.73,1.95,0.37,-0.25,0.15,0.32,4411,50679
0,0.02,-0.04,1,0.06,1.95,1.04,-0.25,0.15,0.31,4412,50689
0,0,-0.05,1.02,-0.12,1.28,2.68,-0.25,0.15,0.32,4413,50699
0,-0.01,-0.04,1.02,-0.85,1.1,2.93,-0.25,0.15,0.32,4414,50709
0,-0.04,-0.04,1.01,-1.22,-0.06,2.68,-0.25,0.15,0.32,4415,50719
0,-0.05,-0.04,1,-0.91,0.12,1.34,-0.25,0.15,0.32,4416,50729
0,-0.04,-0.04,1,-0.85,0.37,-0.18,-0.25,0.15,0.32,4417,50739
0,-0.01,-0.04,1,-0.49,0.06,0.12,-0.25,0.15,0.31,4418,50749
0,-0.01,-0.04,1,0,0.24,1.22,-0.25,0.15,0.31,4419,50759
0,-0.02,-0.04,1.02,0.37,-0.18,1.83,-0.25,0.15,0.32,4420,50769
0,-0.04,-0.03,1.04,-0.79,0.06,1.46,-0.25,0.15,0.32,4421,50779
0,-0.04,-0.03,1.02,-1.89,-0.12,0.73,-0.25,0.15,0.32,4422,50789
0,-0.04,-0.04,1.01,-2.26,0.06,0,-0.25,0.15,0.32,4423,50799
0,-0.02,-0.04,1,-1.95,0.18,-0.79,-0.25,0.15,0.32,4424,50809
0,-0.01,-0.04,1,-1.71,0.3,-0.49,-0.25,0.15,0.31,4425,50819
0,-0.02,-0.04,1,-1.59,0.37,-0.3,-0.25,0.15,0.32,4426,50829
0,-0.03,-0.05,0.98,-1.1,0.79,-0.85,-0.25,0.15,0.32,4427,50839
0,-0,-0.04,0.98,-0.49,1.28,-0.67,-0.25,0.15,0.32,4428,50849
0,-0,-0.05,0.99,-0.24,1.28,-0.12,-0.25,0.15,0.32,4429,50859
0,0,-0.05,0.99,-0.49,0.24,0.73,-0.25,0.15,0.31,4430,50869
0,-0.01,-0.04,0.98,0,0.06,1.4,-0.25,0.15,0.31,4431,50879
0,-0.02,-0.04,0.99,0.91,-0.49,1.4,-0.25,0.15,0.32,4432,50889
0,-0.02,-0.04,1.01,1.1,-0.98,0.85,-0.25,0.15,0.32,4433,50899
0,-0.03,-0.04,1.02,0,-0.98,0.12,-0.25,0.15,0.32,4434,50909
0,-0.02,-0.03,1.01,-0.12,-0.55,0.18,-0.25,0.15,0.32,4435,50919
0,-0.02,-0.04,1.02,0.12,-0.06,-0.43,-0.25,0.15,0.32,4436,50929
0,-0.02,-0.04,1.01,-0.49,0.49,-0.73,-0.25,0.15,0.31,4437,50939
0,-0.02,-0.04,1.01,0,0.37,-0.43,-0.25,0.15,0.31,4438,50949
0,-0.03,-0.04,1.01,0.06,0.12,-0.85,-0.25,0.15,0.32,4439,50959
0,-0.01,-0.04,1.01,0.12,0.06,-1.28,-0.25,0.15,0.32,4440,50969
0,0,-0.04,1.01,0.12,-0.06,-0.91,-0.25,0.15,0.32,4441,50979
0,-0,-0.04,1.01,0.43,-0.55,0.06,-0.25,0.15,0.32,4442,50989
0,-0.01,-0.04,1.01,0.49,-0.37,-0.12,-0.25,0.15,0.31,4443,50999
0,-0.01,-0.03,1.03,0.67,-1.28,-0.06,-0.25,0.15,0.32,4444,51009
0,-0.02,-0.04,1.04,-0.37,-1.34,-0.18,-0.25,0.15,0.32,4445,51019
0,-0.02,-0.03,1.04,-1.16,-1.28,-0.55,-0.25,0.15,0.32,4446,51029
0,-0.03,-0.04,1.03,-1.83,-1.22,-1.1,-0.25,0.15,0.32,4447,51039
0,-0,-0.04,1.02,-2.93,-0.12,-1.83,-0.25,0.15,0.32,4448,51049
0,0.02,-0.05,0.99,-2.87,-0.49,-0.73,-0.25,0.15,0.32,4449,51059
0,0.01,-0.05,0.98,-1.28,-0.49,0.49,-0.25,0.15,0.32,4450,51069
0,-0.01,-0.05,1,-0.85,-0.85,0.73,-0.25,0.15,0.32,4451,51079
0,-0.02,-0.04,1,-0.79,-1.4,0.91,-0.25,0.15,0.32,4452,51089
0,-0.02,-0.04,1.01,-0.91,-1.1,0.37,-0.25,0.15,0.32,4453,51099
0,-0.01,-0.04,1,-0.85,-0.67,-0.06,-0.25,0.15,0.32,4454,51109
0,-0,-0.04,1.01,-0.61,-0.3,0,-0.25,0.15,0.31,4455,51119
0,-0.02,-0.04,1.01,-0.91,-0.37,-0.06,-0.25,0.15,0.32,4456,51129
0,-0.03,-0.04,1,-0.85,-0.98,-0.85,-0.25,0.15,0.32,4457,51139
0,-0.03,-0.04,1.02,-0.67,-2.13,-1.52,-0.25,0.15,0.32,4458,51149
0,-0.01,-0.04,1.03,-2.26,-1.83,-2.01,-0.25,0.15,0.32,4459,51159
0,0,-0.04,1,-1.77,-1.28,-0.37,-0.25,0.15,0.32,4460,51169
0,-0.02,-0.04,1.01,-1.28,-1.28,-0.12,-0.25,0.15,0.31,4461,51179
0,-0.02,-0.04,1.01,-1.65,-1.16,-0.49,-0.25,0.15,0.32,4462,51189
0,-0.01,-0.04,1,-1.77,-0.85,-1.04,-0.25,0.15,0.32,4463,51199
0,-0.02,-0.04,0.99,-0.79,-1.59,-0.85,-0.25,0.15,0.32,4464,51209
0,-0.02,-0.04,1,-0.18,-1.04,-1.4,-0.25,0.15,0.32,4465,51219
0,-0.01,-0.03,1.01,0,-0.79,-1.83,-0.25,0.15,0.32,4466,51229
0,-0,-0.03,1.02,-0.43,-0.67,-1.59,-0.25,0.15,0.32,4467,51239
0,0,-0.03,1.02,-1.34,-0.49,-1.52,-0.25,0.15,0.32,4468,51249
0,0.01,-0.04,1.01,-1.71,-0.73,-1.4,-0.25,0.15,0.32,4469,51259
0,0.01,-0.04,1,-1.4,-1.1,-0.73,-0.25,0.15,0.32,4470,51269
0,-0,-0.04,1,-1.34,-1.46,-0.43,-0.25,0.15,0.32,4471,51279
0,0,-0.04,0.99,-2.01,-0.73,-0.79,-0.25,0.15,0.32,4472,51289
0,0.01,-0.04,0.97,-1.04,-0.49,-0.55,-0.25,0.15,0.32,4473,51299
0,0.02,-0.04,0.99,0,-0.43,0.12,-0.25,0.15,0.31,4474,51309
0,0.02,-0.04,1,0.3,0.24,0.61,-0.25,0.15,0.32,4475,51319
0,0.01,-0.04,1,0.18,-0.18,1.28,-0.25,0.15,0.32,4476,51329
0,-0.01,-0.04,1,0.12,-0.12,1.34,-0.25,0.15,0.32,4477,51339
0,-0.01,-0.04,1,0.55,0.55,0.61,-0.25,0.15,0.32,4478,51349
0,-0.01,-0.04,1.02,0.61,0.18,0.73,-0.25,0.15,0.32,4479,51359
0,-0.01,-0.04,1.02,-0.67,0.43,0.67,-0.25,0.15,0.31,4480,51369
0,-0.02,-0.04,1.01,-0.85,-0.18,0.79,-0.25,0.15,0.32,4481,51379
0,-0.04,-0.04,1.01,-0.55,-0.79,0.18,-0.25,0.15,0.32,4482,51389
0,-0.04,-0.04,1.02,-1.04,-0.91,-1.22,-0.25,0.15,0.32,4483,51399
0,-0.01,-0.04,1.01,-1.52,-0.61,-1.59,-0.25,0.15,0.32,4484,51409
0,0.01,-0.04,1,-0.85,-0.43,-1.1,-0.25,0.15,0.32,4485,51419
0,0,-0.04,1.01,-0.43,-0.55,-0.3,-0.25,0.15,0.32,4486,51429
0,-0,-0.05,1.01,-0.55,0,-0.06,-0.25,0.15,0.32,4487,51439
0,-0.01,-0.04,1,-0.12,0.24,0,-0.25,0.15,0.32,4488,51449
0,-0.03,-0.04,1.01,-0.37,0.55,-0.49,-0.25,0.15,0.32,4489,51459
0,-0.02,-0.04,1.01,-0.79,0,-1.46,-0.25,0.15,0.32,4490,51469
0,-0.01,-0.04,1,-1.04,-0.85,-1.59,-0.25,0.15,0.32,4491,51479
0,0.01,-0.04,0.99,-0.85,-1.22,-1.16,-0.25,0.15,0.31,4492,51489
0,0.01,-0.04,1,0.24,-1.77,-0.49,-0.25,0.15,0.31,4493,51499
0,0,-0.04,1.04,-0.55,-1.65,-0.3,-0.25,0.15,0.32,4494,51509
0,0,-0.04,1.02,-2.2,-0.24,-0.73,-0.25,0.15,0.32,4495,51519
0,0.01,-0.04,0.99,-1.71,0.3,-0.37,-0.25,0.15,0.32,4496,51529
0,0,-0.04,0.99,-0.49,0.85,-0.18,-0.25,0.15,0.32,4497,51539
0,0.01,-0.04,1.01,-0.24,0.49,0,-0.25,0.15,0.31,4498,51549
0,0.01,-0.04,1,-0.73,0.18,0.43,-0.25,0.15,0.32,4499,51559
0,-0,-0.03,0.99,-0.06,-0.43,0.49,-0.25,0.15,0.32,4500,51569
0,-0.01,-0.03,1.01,0.37,-0.24,-0.18,-0.25,0.15,0.32,4501,51579
0,0,-0.04,1.02,-0.55,0.43,-1.04,-0.25,0.15,0.32,4502,51589
0,0.02,-0.04,0.98,-0.55,1.22,-0.67,-0.25,0.15,0.32,4503,51599
0,0.02,-0.05,0.99,1.22,1.22,0.37,-0.25,0.15,0.31,4504,51609
0,0.01,-0.05,1.01,1.28,1.16,0.49,-0.25,0.15,0.32,4505,51619
0,0.01,-0.04,1.01,0.43,1.16,0.91,-0.25,0.15,0.32,4506,51629
0,0,-0.04,1.01,0.06,0.61,1.52,-0.25,0.15,0.32,4507,51639
0,-0.02,-0.04,1.01,-0.06,-0.06,1.4,-0.25,0.15,0.32,4508,51649
0,-0.02,-0.04,1.02,0.12,-0.3,0.43,-0.25,0.15,0.32,4509,51659
0,-0.02,-0.04,1.04,-0.85,-0.79,-0.37,-0.25,0.15,0.32,4510,51669
0,0.01,-0.04,1.02,-2.2,0,-0.79,-0.25,0.15,0.31,4511,51679
0,0.02,-0.05,1,-0.91,-0.3,0.43,-0.25,0.15,0.32,4512,51689
0,0,-0.05,1.01,-0.55,0.18,0.91,-0.25,0.15,0.32,4513,51699
0,-0.01,-0.04,1.03,-0.98,0.24,1.1,-0.25,0.15,0.32,4514,51709
0,-0.02,-0.04,1.03,-1.59,0.12,0.49,-0.25,0.15,0.32,4515,51719
0,-0.01,-0.04,1.02,-2.26,-0.18,0.06,-0.25,0.15,0.32,4516,51729
0,-0.01,-0.04,1.01,-2.2,-0.67,0.24,-0.25,0.15,0.32,4517,51739
0,-0.02,-0.04,1.01,-2.13,-1.16,0.06,-0.25,0.15,0.31,4518,51749
0,-0.01,-0.04,1.01,-2.44,-1.1,-0.3,-0.25,0.15,0.32,4519,51759
0,0,-0.04,1,-2.44,-0.85,-0.24,-0.25,0.15,0.32,4520,51769
0,-0.01,-0.04,1,-1.95,-0.61,0.37,-0.25,0.15,0.32,4521,51779
0,-0.01,-0.05,1,-1.89,-0.18,-0.18,-0.25,0.15,0.31,4522,51789
0,-0,-0.05,0.99,-1.52,0.06,-0.49,-0.25,0.15,0.31,4523,51799
0,0.01,-0.05,1,-1.28,0.06,-0.24,-0.25,0.15,0.32,4524,51809
0,0,-0.05,1,-1.1,-0.55,0.3,-0.25,0.15,0.32,4525,51819
0,-0.01,-0.04,1,-1.28,-1.1,0.37,-0.25,0.15,0.32,4526,51829
0,-0.02,-0.04,0.99,-0.79,-0.98,-0.06,-0.25,0.15,0.32,4527,51839
0,-0.02,-0.04,0.99,0.18,-0.79,-0.55,-0.25,0.15,0.32,4528,51849
0,-0.01,-0.04,1.01,-0.24,-0.12,-1.1,-0.25,0.15,0.32,4529,51859
0,-0,-0.04,1,-0.67,0.06,-1.1,-0.25,0.15,0.32,4530,51869
0,-0,-0.04,1,-0.24,-0.18,-0.79,-0.25,0.15,0.32,4531,51879
0,-0,-0.04,1.01,-0.37,-0.12,-0.91,-0.25,0.15,0.32,4532,51889
0,0,-0.04,1.01,-1.4,-0.18,-0.67,-0.25,0.15,0.32,4533,51899
0,-0.01,-0.04,0.99,-1.1,-0.3,-0.67,-0.25,0.15,0.32,4534,51909
0,-0.01,-0.05,0.98,0.06,0,-1.28,-0.25,0.15,0.32,4535,51919
0,0,-0.04,1.01,-0.18,0.37,-1.28,-0.26,0.15,0.31,4536,51929
0,0,-0.04,1,-0.67,-0.3,-0.85,-0.25,0.15,0.32,4537,51939
0,-0,-0.04,0.99,-0.12,-1.4,-0.49,-0.25,0.15,0.31,4538,51949
0,-0.01,-0.04,1.01,0.73,-1.95,-0.73,-0.26,0.15,0.32,4539,51959
0,-0,-0.04,1.03,0.18,-1.65,-0.85,-0.26,0.15,0.32,4540,51969
0,0.01,-0.04,1.02,-1.28,-0.61,-1.1,-0.25,0.15,0.32,4541,51979
0,0.02,-0.04,0.99,-1.1,0.61,-0.67,-0.25,0.15,0.31,4542,51989
0,0.02,-0.05,0.99,-0.06,1.28,0,-0.26,0.15,0.32,4543,51999
0,0.03,-0.05,0.99,0.3,1.4,0.55,-0.25,0.15,0.32,4544,52009
0,0.02,-0.04,0.99,0.61,0.06,2.07,-0.25,0.15,0.32,4545,52019
0,-0.03,-0.04,1.01,0.61,-0.61,1.89,-0.25,0.15,0.32,4546,52029
0,-0.03,-0.04,1.01,-0.18,-0.91,-0.18,-0.25,0.15,0.31,4547,52039
0,0.01,-0.04,1.01,-0.49,-0.24,-0.49,-0.26,0.15,0.31,4548,52049
0,0.02,-0.04,1.01,-0.73,-0.18,0.3,-0.25,0.15,0.32,4549,52059
0,0,-0.04,1,-0.55,-0.67,1.04,-0.25,0.15,0.32,4550,52069
0,-0.01,-0.05,1.01,-0.06,-0.24,0.24,-0.26,0.15,0.32,4551,52079
0,0.01,-0.05,1.01,-0.3,-0.43,0.18,-0.25,0.15,0.32,4552,52089
0,0.03,-0.04,1.01,-0.49,-0.61,1.46,-0.26,0.15,0.32,4553,52099
0,0.02,-0.04,1,-0.55,-0.55,2.93,-0.26,0.15,0.31,4554,52109
0,-0,-0.04,0.99,-0.24,-0.18,3.23,-0.26,0.15,0.31,4555,52119
0,-0.01,-0.04,1,0.37,0.18,2.44,-0.26,0.15,0.32,4556,52129
0,-0.01,-0.04,1,0.24,0.37,1.89,-0.25,0.15,0.32,4557,52139
0,-0.01,-0.04,0.99,0.79,0.49,1.1,-0.25,0.15,0.32,4558,52149
0,-0,-0.04,1,1.65,0.3,0.67,-0.26,0.15,0.32,4559,52159
0,0.01,-0.04,1,2.01,0.91,0.85,-0.25,0.15,0.31,4560,52169
0,0.02,-0.04,1,2.62,1.28,1.4,-0.25,0.15,0.32,4561,52179
0,0.01,-0.04,1.04,2.32,0.55,2.44,-0.25,0.15,0.32,4562,52189
0,-0,-0.03,1.04,-0.43,0.18,2.74,-0.25,0.15,0.32,4563,52199
0,-0.02,-0.03,1.01,-1.34,-0.12,2.62,-0.25,0.15,0.32,4564,52209
0,-0.02,-0.04,1,-1.46,0.06,1.65,-0.25,0.15,0.32,4565,52219
0,0,-0.04,0.97,-0.3,-0.18,0.73,-0.25,0.15,0.32,4566,52229
0,0.02,-0.04,1,1.22,-0.67,1.95,-0.25,0.15,0.32,4567,52239
0,-0,-0.04,1.03,-1.16,-0.43,2.38,-0.25,0.15,0.32,4568,52249
0,-0.04,-0.04,0.99,0.98,-0.37,-0.12,-0.25,0.15,0.32,4569,52259
0,-0,-0.04,1.01,1.04,0.91,-1.89,-0.25,0.15,0.32,4570,52269
0,0.04,-0.03,1.02,1.04,0.49,-0.61,-0.25,0.15,0.32,4571,52279
0,0.01,-0.04,1.03,-0.24,-0.12,0.61,-0.26,0.15,0.31,4572,52289
0,0.01,-0.03,1,-0.67,0.24,0.73,-0.26,0.15,0.32,4573,52299
0,0,-0.03,1,0.43,-0.06,0.79,-0.25,0.15,0.32,4574,52309
0,0,-0.03,1.01,0.12,0.18,0.85,-0.25,0.15,0.32,4575,52319
0,-0.01,-0.03,1,0.18,-0.43,0.73,-0.25,0.15,0.32,4576,52329
0,-0.02,-0.03,1.01,0.24,-0.3,0,-0.25,0.15,0.32,4577,52339
0,-0,-0.03,1.01,0,0.67,-0.85,-0.26,0.15,0.32,4578,52349
0,0.01,-0.04,1,0.12,0.73,-0.91,-0.26,0.15,0.32,4579,52359
0,0.01,-0.03,1,0.37,0.67,-0.3,-0.25,0.15,0.32,4580,52369
0,-0,-0.04,1.01,0.12,0.49,-0.06,-0.25,0.15,0.32,4581,52379
0,0,-0.04,1,-0.73,0.43,-0.06,-0.25,0.15,0.32,4582,52389
0,0.01,-0.03,0.99,-0.3,0.37,0.55,-0.25,0.15,0.32,4583,52399
0,-0,-0.03,1,0.37,0.06,1.1,-0.26,0.15,0.31,4584,52409
0,-0.01,-0.03,1.01,0.06,-0.37,0.79,-0.25,0.15,0.32,4585,52419
0,-0.02,-0.03,1.01,-0.18,-0.12,-0.49,-0.26,0.15,0.32,4586,52429
0,-0.01,-0.03,1.02,0,-0.12,-1.04,-0.25,0.15,0.32,4587,52439
0,0,-0.04,1.01,-0.85,1.22,-1.83,-0.26,0.15,0.32,4588,52449
0,0.03,-0.04,0.98,-0.37,1.4,-1.22,-0.25,0.15,0.32,4589,52459
0,0.02,-0.04,1,1.1,0.98,0.37,-0.26,0.15,0.32,4590,52469
0,0,-0.03,1.01,0.49,0.12,0.85,-0.26,0.15,0.32,4591,52479
0,-0,-0.02,1.01,0.18,-0.85,1.22,-0.26,0.15,0.32,4592,52489
0,-0.04,-0.02,1.04,0.06,-2.01,0.49,-0.26,0.15,0.32,4593,52499
0,-0.03,-0.03,1.04,-2.2,-1.1,-1.71,-0.26,0.14,0.32,4594,52509
0,0.02,-0.03,1.01,-2.8,0.37,-2.5,-0.26,0.15,0.32,4595,52519
0,0.03,-0.04,0.99,-1.77,0.73,-1.52,-0.26,0.15,0.32,4596,52529
0,0.02,-0.04,0.99,-1.22,1.16,-0.91,-0.26,0.15,0.32,4597,52539
0,0.02,-0.04,0.99,-0.43,0.79,-0.73,-0.26,0.15,0.32,4598,52549
0,0.02,-0.04,1.01,-0.55,0.55,0.06,-0.25,0.15,0.32,4599,52559
0,0.02,-0.04,1.01,-0.85,0.73,0.79,-0.25,0.15,0.32,4600,52569
0,0.01,-0.04,1,-0.79,0.49,1.65,-0.25,0.15,0.32,4601,52579
0,0.01,-0.03,1,0.12,0.61,2.13,-0.25,0.15,0.32,4602,52589
0,-0,-0.03,1.02,-0.24,0.79,1.65,-0.25,0.15,0.32,4603,52599
0,0,-0.03,1.01,-1.04,0.24,1.59,-0.26,0.15,0.32,4604,52609
0,-0.01,-0.03,1.01,-0.49,0.3,1.16,-0.25,0.15,0.32,4605,52619
0,-0.02,-0.03,1.01,-0.3,0.49,0.24,-0.25,0.15,0.32,4606,52629
0,0.01,-0.03,1.01,-0.43,0.91,-0.12,-0.25,0.15,0.32,4607,52639
0,0.01,-0.03,1,-0.61,0.98,0.85,-0.26,0.15,0.32,4608,52649
0,-0.01,-0.04,1,-0.79,0.79,1.4,-0.25,0.15,0.32,4609,52659
0,-0.01,-0.03,0.99,0,0.85,0.85,-0.25,0.15,0.32,4610,52669
0,-0.01,-0.03,1,0.3,0.06,0.85,-0.25,0.15,0.32,4611,52679
0,-0.01,-0.03,1.01,-0.06,0.24,0.3,-0.25,0.14,0.32,4612,52689
0,-0.01,-0.03,1,-0.55,-0.18,-0.3,-0.25,0.15,0.32,4613,52699
0,0,-0.03,0.99,-0.18,0.3,-0.37,-0.26,0.15,0.32,4614,52709
0,0.01,-0.04,0.99,0.24,0.73,-0.3,-0.26,0.15,0.32,4615,52719
0,0.01,-0.03,1,0.06,0.67,0.43,-0.25,0.15,0.32,4616,52729
0,0.01,-0.03,1,-0.18,1.28,0.79,-0.26,0.15,0.32,4617,52739
0,0.01,-0.03,0.98,-0.06,0.98,1.77,-0.25,0.15,0.32,4618,52749
0,-0.01,-0.03,1,1.16,0.49,2.01,-0.25,0.15,0.32,4619,52759
0,-0.03,-0.03,1.03,0.49,-0.06,0.91,-0.25,0.15,0.32,4620,52769
0,-0.02,-0.02,1.01,-0.67,0.18,0.18,-0.25,0.15,0.32,4621,52779
0,-0.01,-0.03,1,0.06,0.49,-0.37,-0.26,0.15,0.32,4622,52789
0,0.01,-0.03,0.99,1.04,0.67,-0.18,-0.25,0.15,0.32,4623,52799
0,0.01,-0.03,1.03,0.24,0.98,0.85,-0.25,0.15,0.32,4624,52809
0,-0.01,-0.03,1.01,-0.49,0.85,1.1,-0.25,0.14,0.32,4625,52819
0,-0.02,-0.03,1.01,-0.3,0.91,0.49,-0.25,0.15,0.32,4626,52829
0,0,-0.03,1.01,-0.49,1.59,0,-0.25,0.15,0.32,4627,52839
0,0.01,-0.04,1.01,-0.06,1.16,0.43,-0.25,0.15,0.32,4628,52849
0,0.01,-0.03,1.01,-0.37,1.22,1.22,-0.25,0.14,0.32,4629,52859
0,-0,-0.04,0.99,-0.12,1.46,1.34,-0.25,0.15,0.32,4630,52869
0,-0.01,-0.03,1,0.91,0.98,1.22,-0.26,0.15,0.32,4631,52879
0,-0,-0.03,1.01,1.04,1.1,0.55,-0.25,0.15,0.32,4632,52889
0,0.01,-0.03,1.01,0.85,0.61,0.79,-0.26,0.15,0.32,4633,52899
0,0,-0.03,1.02,0.43,0.79,0.98,-0.25,0.15,0.32,4634,52909
0,-0,-0.03,1.02,-0.06,1.4,0.49,-0.25,0.15,0.32,4635,52919
0,0.01,-0.03,1.01,-0.43,1.52,0.37,-0.25,0.15,0.32,4636,52929
0,0.01,-0.03,1,0.18,1.34,0.91,-0.25,0.15,0.32,4637,52939
0,-0,-0.03,1.01,0.49,0.61,1.59,-0.25,0.15,0.32,4638,52949
0,-0.02,-0.03,1.04,-0.06,0.37,1.28,-0.25,0.15,0.32,4639,52959
0,-0.01,-0.02,1.03,-1.59,0.43,0.55,-0.25,0.15,0.32,4640,52969
0,0,-0.02,1.01,-1.59,0.98,0.73,-0.25,0.15,0.31,4641,52979
0,0,-0.03,1.01,-1.34,1.71,0.67,-0.25,0.15,0.32,4642,52989
0,-0,-0.03,1,-1.46,1.52,0.85,-0.25,0.15,0.32,4643,52999
0,-0.01,-0.04,0.99,-1.16,1.77,0.61,-0.25,0.15,0.32,4644,53009
0,-0,-0.04,0.99,-0.24,0.98,0.43,-0.25,0.15,0.32,4645,53019
0,0.01,-0.03,1.01,-0.3,0.49,0.61,-0.25,0.15,0.32,4646,53029
0,0.01,-0.03,1.01,-0.3,0.49,1.16,-0.25,0.15,0.32,4647,53039
0,0,-0.03,1.01,-0.12,0.37,1.46,-0.25,0.15,0.32,4648,53049
0,-0,-0.02,1.01,-0.18,0.85,1.22,-0.25,0.14,0.32,4649,53059
0,-0.02,-0.02,1.02,0,0.37,1.34,-0.25,0.14,0.32,4650,53069
0,-0.02,-0.02,1.03,-1.1,1.28,0.43,-0.25,0.15,0.32,4651,53079
0,-0.01,-0.03,1.02,-1.04,0.98,0.06,-0.25,0.15,0.31,4652,53089
0,0.01,-0.03,1.02,-1.28,0.43,0.43,-0.25,0.15,0.32,4653,53099
0,0,-0.03,1.02,-1.77,0.73,0.61,-0.25,0.15,0.32,4654,53109
0,0,-0.03,1,-1.83,0.73,0.85,-0.25,0.14,0.32,4655,53119
0,0,-0.03,1,-1.28,0.73,0.79,-0.25,0.15,0.32,4656,53129
0,-0.01,-0.03,1.01,-1.4,0.24,0.67,-0.25,0.15,0.32,4657,53139
0,-0.01,-0.03,1.01,-1.95,0,0.24,-0.25,0.15,0.32,4658,53149
0,-0,-0.03,0.99,-1.95,0.43,-0.18,-0.25,0.15,0.32,4659,53159
0,0.01,-0.03,0.99,-0.73,0.3,0.3,-0.25,0.15,0.32,4660,53169
0,0.01,-0.03,1.01,-0.55,0.91,0.61,-0.25,0.15,0.32,4661,53179
0,0.02,-0.03,1,-1.16,1.22,1.28,-0.25,0.14,0.32,4662,53189
0,0.02,-0.03,1,-0.85,0.91,2.5,-0.25,0.15,0.32,4663,53199
0,-0.01,-0.03,0.99,-0.37,0.98,2.99,-0.25,0.15,0.32,4664,53209
0,-0.03,-0.03,1.01,0.06,0.85,2.44,-0.25,0.15,0.32,4665,53219
0,-0.03,-0.03,1.01,-0.3,0.91,1.22,-0.25,0.15,0.32,4666,53229
0,-0.02,-0.03,1,-0.37,0.67,0.73,-0.25,0.15,0.32,4667,53239
0,-0.01,-0.03,1.01,-0.12,0.85,0.49,-0.25,0.14,0.32,4668,53249
0,-0.01,-0.03,1.02,-0.12,0.79,0.18,-0.25,0.15,0.32,4669,53259
0,0.01,-0.03,1.02,-1.04,1.34,0.43,-0.25,0.15,0.32,4670,53269
0,0,-0.03,1.01,-1.16,1.4,1.04,-0.25,0.15,0.32,4671,53279
0,-0.01,-0.04,1.01,-1.34,1.28,1.22,-0.25,0.15,0.32,4672,53289
0,0,-0.03,1,-1.65,1.4,0.91,-0.25,0.15,0.32,4673,53299
0,0,-0.03,1,-1.04,0.61,1.59,-0.25,0.15,0.32,4674,53309
0,-0,-0.04,1.01,-1.28,0.85,1.71,-0.25,0.15,0.32,4675,53319
0,-0.01,-0.03,0.99,-0.73,0.67,1.71,-0.25,0.15,0.32,4676,53329
0,-0.02,-0.03,1,0.3,0.37,1.71,-0.25,0.15,0.32,4677,53339
0,-0.02,-0.03,1.02,-0.06,0.49,1.16,-0.25,0.15,0.32,4678,53349
0,-0.03,-0.02,1.02,-0.06,0,0.61,-0.25,0.15,0.32,4679,53359
0,-0.02,-0.03,1.03,-0.91,0.37,-0.18,-0.25,0.15,0.32,4680,53369
0,0.01,-0.03,1.02,-1.46,1.04,-0.37,-0.25,0.15,0.32,4681,53379
0,0.02,-0.04,0.99,-1.4,1.71,0.49,-0.25,0.15,0.32,4682,53389
0,0.02,-0.04,0.99,-0.91,2.07,1.46,-0.25,0.15,0.32,4683,53399
0,0.01,-0.04,0.98,0.06,1.4,2.13,-0.25,0.15,0.32,4684,53409
0,-0.01,-0.03,1,1.04,0.55,2.44,-0.25,0.15,0.32,4685,53419
0,-0.02,-0.03,1.03,0.55,0.12,1.77,-0.25,0.15,0.32,4686,53429
0,-0.01,-0.03,1.03,-0.98,-0.18,1.1,-0.25,0.15,0.32,4687,53439
0,-0,-0.03,1.02,-1.59,0.55,1.04,-0.25,0.15,0.32,4688,53449
0,-0,-0.03,1,-1.28,1.1,1.4,-0.25,0.15,0.32,4689,53459
0,-0.01,-0.03,1.01,-1.34,1.83,1.4,-0.25,0.15,0.32,4690,53469
0,-0.02,-0.03,1.01,-1.46,1.71,0.67,-0.25,0.15,0.32,4691,53479
0,-0.02,-0.04,1,-1.34,1.16,0.3,-0.25,0.15,0.32,4692,53489
0,-0,-0.04,1,-0.98,1.22,0.24,-0.25,0.15,0.32,4693,53499
0,0,-0.03,1,0.12,0.18,0.91,-0.25,0.15,0.32,4694,53509
0,-0,-0.03,1.02,-0.12,-0.12,1.34,-0.25,0.15,0.32,4695,53519
0,-0.02,-0.03,1.02,-0.67,-0.18,1.1,-0.25,0.15,0.32,4696,53529
0,-0.02,-0.03,1.02,-0.85,-0.06,0.55,-0.25,0.15,0.32,4697,53539
0,-0.01,-0.03,1.01,-0.67,0.37,0.12,-0.25,0.15,0.32,4698,53549
0,-0,-0.03,1.03,-0.91,0.37,0.55,-0.25,0.14,0.32,4699,53559
0,0,-0.03,1.02,-1.95,1.22,0.79,-0.25,0.15,0.32,4700,53569
0,-0,-0.03,0.99,-1.46,0.91,1.28,-0.25,0.15,0.32,4701,53579
0,-0.01,-0.03,0.99,-0.37,0.61,1.22,-0.25,0.15,0.32,4702,53589
0,-0.01,-0.03,1.03,-0.79,0.43,0.49,-0.25,0.15,0.32,4703,53599
0,-0,-0.03,1.01,-2.26,-0.12,0.73,-0.25,0.15,0.32,4704,53609
0,-0.01,-0.03,1,-1.52,0.12,0.67,-0.25,0.15,0.32,4705,53619
0,-0.01,-0.04,1.01,-1.34,0.61,0.12,-0.25,0.15,0.32,4706,53629
0,0.01,-0.03,1.01,-1.65,1.1,0.37,-0.25,0.15,0.32,4707,53639
0,-0.01,-0.03,1.01,-1.77,0.73,0.98,-0.25,0.15,0.31,4708,53649
0,-0.02,-0.03,0.99,-1.83,0.73,0.79,-0.25,0.15,0.32,4709,53659
0,-0.01,-0.03,0.98,-0.79,0,0.49,-0.25,0.15,0.32,4710,53669
0,-0.02,-0.03,1,0.12,-0.49,0.49,-0.25,0.15,0.32,4711,53679
0,-0.02,-0.03,1.02,-0.43,0.06,-0.3,-0.25,0.15,0.32,4712,53689
0,-0,-0.04,1,-0.55,0.61,-0.43,-0.25,0.15,0.31,4713,53699
0,0.01,-0.03,1,0.06,0.67,0.43,-0.25,0.15,0.32,4714,53709
0,-0.01,-0.03,1.01,0.06,0.79,0.91,-0.25,0.15,0.32,4715,53719
0,-0.03,-0.03,1.02,-0.91,0.37,0.12,-0.25,0.15,0.32,4716,53729
0,-0.01,-0.03,1.01,-1.83,0.67,-0.55,-0.25,0.15,0.32,4717,53739
0,-0.01,-0.03,1,-1.4,0.3,-0.37,-0.25,0.15,0.32,4718,53749
0,-0.01,-0.03,1,-0.98,0.06,-0.12,-0.25,0.15,0.32,4719,53759
0,-0.01,-0.04,1.01,-0.91,-0.43,0,-0.25,0.15,0.32,4720,53769
0,-0.01,-0.03,1,-1.77,-0.37,0,-0.25,0.15,0.32,4721,53779
0,-0.01,-0.03,0.99,-1.34,-0.24,-0.06,-0.25,0.15,0.32,4722,53789
0,-0.02,-0.04,0.99,-0.3,-0.12,-0.24,-0.25,0.15,0.32,4723,53799
0,-0.01,-0.04,1.01,-0.12,0.37,-0.67,-0.25,0.15,0.32,4724,53809
0,-0,-0.03,1.01,-0.12,0.43,-0.55,-0.25,0.15,0.32,4725,53819
0,0,-0.03,1.01,-0.12,0.06,0.24,-0.25,0.15,0.31,4726,53829
0,-0.01,-0.03,1.02,-0.37,0,0.37,-0.25,0.15,0.32,4727,53839
0,-0.02,-0.03,1.01,-1.16,0,0,-0.25,0.15,0.32,4728,53849
0,-0.01,-0.03,1,-0.98,0.85,-0.61,-0.25,0.15,0.32,4729,53859
0,-0.01,-0.04,0.99,-0.55,1.16,-0.91,-0.25,0.15,0.32,4730,53869
